"value","trial_type","trial_index","time_elapsed","internal_node_id","run_id","condition","recorded_at","source_code_version","ip","user_agent","device","browser","browser_version","platform","platform_version","referer","accept_language","subject_id","rt","stimulus","response","typeoftrial","subject","view_history","age","gender","education","question_order","race","hispanic","dominant_hand","alert_time","english","first_language","age_learned_english","compensation","compensation_name","compensation_email"
"","call-function","0","1","0.0-0.0","32","1","2025-07-22 16:15:55","6eb258f325549891148aa347a1ca3777","64.223.128.100","Mozilla/5.0 (Macintosh; Intel Mac OS X 10_15_7) AppleWebKit/537.36 (KHTML, like Gecko) Chrome/138.0.0.0 Safari/537.36","Macintosh","Chrome","138.0.0.0","OS X","10_15_7","null","en-US,en;q=0.9","","","","","","","","","","","","","","","","","","","","",""
"","html-button-response","1","3651","0.0-1.0","32","1","2025-07-22 16:15:55","6eb258f325549891148aa347a1ca3777","64.223.128.100","Mozilla/5.0 (Macintosh; Intel Mac OS X 10_15_7) AppleWebKit/537.36 (KHTML, like Gecko) Chrome/138.0.0.0 Safari/537.36","Macintosh","Chrome","138.0.0.0","OS X","10_15_7","null","en-US,en;q=0.9","","3649","
 <p style=""font-size:20px;""> Thank you for taking part in this experiment!</p>
 <p style=""font-size:20px;""> ‎</p>
 <p style=""font-size:18px;""> Before we walk you through the tasks you will be doing, we would like to get a sense of what</p>
 <p style=""font-size:18px;""> content you typically consume on the Reddit platform. On the preceeding page, we ask that you</p>
 <p style=""font-size:18px;""> input the names of the Subreddits you typically engage with in any capacity. (i.e. writing posts,</p>
 <p style=""font-size:18px;""> reading posts, upvoting, commenting, sharing, etc.) On the page following that, we ask that you input</p>
 <p style=""font-size:18px;""> your general interests, independent of specific Subreddits. To input a response, type it within the </p>
 <p style=""font-size:18px;""> provided box and <strong>press ENTER</strong> after every response. Keep in mind, there will be a three minute</p>
 <p style=""font-size:18px;""> time limit. However, if you feel you are done before time runs out, <strong>press continue</strong>. This data</p>
 <p style=""font-size:18px;""> is crucial to the experiment, so please be as accurate possible when typing your responses.</p>


 <p style=""font-size:20px;""> ‎</p>
 <p style=""font-size:18px;""> After you complete these tasks, you will be provided further instructions and continue to the actual experiment.</p>
 <p style=""font-size:18px;""> When you are ready to start, <strong>press Continue.</strong></p>


 ","0","instructions","41393","","","","","","","","","","","","","","",""
"","instructions","2","4622","0.0-2.0-0.0","32","1","2025-07-22 16:15:55","6eb258f325549891148aa347a1ca3777","64.223.128.100","Mozilla/5.0 (Macintosh; Intel Mac OS X 10_15_7) AppleWebKit/537.36 (KHTML, like Gecko) Chrome/138.0.0.0 Safari/537.36","Macintosh","Chrome","138.0.0.0","OS X","10_15_7","null","en-US,en;q=0.9","","970","","","","","[{""page_index"":0,""viewing_time"":970}]","","","","","","","","","","","","","",""
"","survey-html-form","3","11527","0.0-2.0-1.0","32","1","2025-07-22 16:15:55","6eb258f325549891148aa347a1ca3777","64.223.128.100","Mozilla/5.0 (Macintosh; Intel Mac OS X 10_15_7) AppleWebKit/537.36 (KHTML, like Gecko) Chrome/138.0.0.0 Safari/537.36","Macintosh","Chrome","138.0.0.0","OS X","10_15_7","null","en-US,en;q=0.9","","6903","","{""gender"":""female"",""age"":""19"",""education"":""13""}","demographics","","","19","female","13","","","","","","","","","","",""
"","survey-multi-select","4","13526","0.0-2.0-2.0","32","1","2025-07-22 16:15:55","6eb258f325549891148aa347a1ca3777","64.223.128.100","Mozilla/5.0 (Macintosh; Intel Mac OS X 10_15_7) AppleWebKit/537.36 (KHTML, like Gecko) Chrome/138.0.0.0 Safari/537.36","Macintosh","Chrome","138.0.0.0","OS X","10_15_7","null","en-US,en;q=0.9","","1996","","{""race"":[""Asian""]}","demographics","","","","","","[0]","Asian","","","","","","","","",""
"","survey-multi-choice","5","16835","0.0-2.0-3.0","32","1","2025-07-22 16:15:55","6eb258f325549891148aa347a1ca3777","64.223.128.100","Mozilla/5.0 (Macintosh; Intel Mac OS X 10_15_7) AppleWebKit/537.36 (KHTML, like Gecko) Chrome/138.0.0.0 Safari/537.36","Macintosh","Chrome","138.0.0.0","OS X","10_15_7","null","en-US,en;q=0.9","","3307","","{""hispanic"":""No"",""dominant_hand"":""Right"",""alert_time"":""Morning""}","demographics","","","","","","[0,1,2]","","No","Right","Morning","","","","","",""
"","html-button-response","6","17650","0.0-2.0-4.0","32","1","2025-07-22 16:15:55","6eb258f325549891148aa347a1ca3777","64.223.128.100","Mozilla/5.0 (Macintosh; Intel Mac OS X 10_15_7) AppleWebKit/537.36 (KHTML, like Gecko) Chrome/138.0.0.0 Safari/537.36","Macintosh","Chrome","138.0.0.0","OS X","10_15_7","null","en-US,en;q=0.9","","814","Is English your first language?","1","demographics","","","","","","","","","","","no","","","","",""
"","survey-html-form","7","25656","0.0-2.0-5.0-0.0","32","1","2025-07-22 16:15:55","6eb258f325549891148aa347a1ca3777","64.223.128.100","Mozilla/5.0 (Macintosh; Intel Mac OS X 10_15_7) AppleWebKit/537.36 (KHTML, like Gecko) Chrome/138.0.0.0 Safari/537.36","Macintosh","Chrome","138.0.0.0","OS X","10_15_7","null","en-US,en;q=0.9","","8005","","{""first_language"":""spanish"",""age_learned_english"":""5""}","follow_up_demographics","","","","","","","","","","","","spanish","5","","",""
"","html-button-response","8","26792","0.0-3.0","32","1","2025-07-22 16:15:55","6eb258f325549891148aa347a1ca3777","64.223.128.100","Mozilla/5.0 (Macintosh; Intel Mac OS X 10_15_7) AppleWebKit/537.36 (KHTML, like Gecko) Chrome/138.0.0.0 Safari/537.36","Macintosh","Chrome","138.0.0.0","OS X","10_15_7","null","en-US,en;q=0.9","","1135","As a thank you for your participation, you may choose to enter a raffle for $(tbd..). Would you like to enter the raffle?","0","compensation","","","","","","","","","","","","","","yes","",""
"","survey-html-form","9","30013","0.0-4.0-0.0","32","1","2025-07-22 16:15:55","6eb258f325549891148aa347a1ca3777","64.223.128.100","Mozilla/5.0 (Macintosh; Intel Mac OS X 10_15_7) AppleWebKit/537.36 (KHTML, like Gecko) Chrome/138.0.0.0 Safari/537.36","Macintosh","Chrome","138.0.0.0","OS X","10_15_7","null","en-US,en;q=0.9","","3219","","{""compensation_name"":""sdg"",""compensation_email"":""sdg""}","follow_up_demographics","","","","","","","","","","","","","","","sdg","sdg"
"","html-button-response","10","30855","0.0-5.0","32","1","2025-07-22 16:15:55","6eb258f325549891148aa347a1ca3777","64.223.128.100","Mozilla/5.0 (Macintosh; Intel Mac OS X 10_15_7) AppleWebKit/537.36 (KHTML, like Gecko) Chrome/138.0.0.0 Safari/537.36","Macintosh","Chrome","138.0.0.0","OS X","10_15_7","null","en-US,en;q=0.9","","840","
      <p>You have completed the experiment. Thank you for participating! </p>
      <p> Please click <a href=""https://bit.ly/3t1aLGU"" target=""_blank"" rel=""noopener noreferrer"">here</a> to access the debriefing form and know more about our research.</p>
      <p> Please click the button below to finish the experiment and save your data.</p>
      <p> IMPORTANT: Please do not leave this page without clicking the button below.</p>
        ","0","end","","","","","","","","","","","","","","","",""