"value","trial_type","trial_index","time_elapsed","internal_node_id","run_id","condition","recorded_at","source_code_version","ip","user_agent","device","browser","browser_version","platform","platform_version","referer","accept_language","subject_id","rt","stimulus","response","typeoftrial","subject","task","domain","tagged_responses","response_times","ended_early","taggedResponses","droppedwords","view_history","age","gender","education","question_order","race","hispanic","dominant_hand","alert_time","english"
"","call-function","0","0","0.0-0.0","10","1","2025-07-14 18:24:13","01a1fdd02c2d092b42551a60c16bc98f","139.140.216.106","Mozilla/5.0 (Macintosh; Intel Mac OS X 10_15_7) AppleWebKit/537.36 (KHTML, like Gecko) Chrome/138.0.0.0 Safari/537.36","Macintosh","Chrome","138.0.0.0","OS X","10_15_7","null","en-US,en;q=0.9","","","","","","","","","","","","","","","","","","","","","","",""
"","html-button-response","1","2806","0.0-1.0","10","1","2025-07-14 18:24:13","01a1fdd02c2d092b42551a60c16bc98f","139.140.216.106","Mozilla/5.0 (Macintosh; Intel Mac OS X 10_15_7) AppleWebKit/537.36 (KHTML, like Gecko) Chrome/138.0.0.0 Safari/537.36","Macintosh","Chrome","138.0.0.0","OS X","10_15_7","null","en-US,en;q=0.9","","2804","
 <p style=""font-size:20px;""> Thank you for taking part in this experiment!</p>
 <p style=""font-size:20px;""> ‎</p>
 <p style=""font-size:18px;""> Before we walk you through the tasks you will be doing, we would like to get a sense of what</p>
 <p style=""font-size:18px;""> content you typically consume on the Reddit platform. On the preceeding page, we ask that you</p>
 <p style=""font-size:18px;""> input the names of the Subreddits you typically engage with in any capacity. (i.e. writing posts,</p>
 <p style=""font-size:18px;""> reading posts, upvoting, commenting, sharing, etc.) On the page following that, we ask that you input</p>
 <p style=""font-size:18px;""> your general interests, independent of specific Subreddits. To input a response, type it within the </p>
 <p style=""font-size:18px;""> provided box and <strong>press ENTER</strong> after every response. Keep in mind, there will be a three minute</p>
 <p style=""font-size:18px;""> time limit. However, if you feel you are done before time runs out, <strong>press continue</strong>. This data</p>
 <p style=""font-size:18px;""> is crucial to the experiment, so please be as accurate possible when typing your responses.</p>


 <p style=""font-size:20px;""> ‎</p>
 <p style=""font-size:18px;""> After you complete these tasks, you will be provided further instructions and continue to the actual experiment.</p>
 <p style=""font-size:18px;""> When you are ready to start, <strong>press Continue.</strong></p>


 ","0","instructions","21466","","","","","","","","","","","","","","","","",""
"","html-keyboard-response","2","12809","0.0-2.0-0.0","10","1","2025-07-14 18:24:13","01a1fdd02c2d092b42551a60c16bc98f","139.140.216.106","Mozilla/5.0 (Macintosh; Intel Mac OS X 10_15_7) AppleWebKit/537.36 (KHTML, like Gecko) Chrome/138.0.0.0 Safari/537.36","Macintosh","Chrome","138.0.0.0","OS X","10_15_7","null","en-US,en;q=0.9","","null","
    <div id = ""timer-box""></div>
    <div id = ""response-input-box"">
      <p style = ""font-size:30px;"">Please type in the names of the Subreddits you frequently engage with</p>
      <div id = ""responses"">
        <input type = ""text"" class = ""subreddits-response active"" autofocus />
      </div>
      <p id = ""below-input-text"" style = ""font-size: 14px; margin-top: 10px; color: gray; text-align: left;""> press <strong>enter</strong> after each word!</p>
      <button id = ""continue-btn"" style = ""margin-top: 15px; padding: 10px 20px font-size:16px;"">Continue</button> 
    </div>
    <style>
      #responses {
      position: relative;
      width: 300px;
      height: 40px; 
      }

      .subreddits-response {
        position: absolute;
        top: 0;
        left: 0;
        width: 100%;
        font-size: 20px;
        padding: 5px;
        box-sizing: border-box;
        opacity: 0.5;
      } 

      .subreddits-response.active {
      opacity: 1;
      z-index: 999;
      }
    </style>
    ","null","","21466","VFT","subreddits","[{""response"":""r/animals"",""tag"":1},{""response"":""r/plants"",""tag"":2},{""response"":""r/jewlery"",""tag"":3}]","[2593.1,2641.2,4199.2]","false","","","","","","","","","","","",""
"","html-keyboard-response","3","18312","0.0-3.0-0.0","10","1","2025-07-14 18:24:13","01a1fdd02c2d092b42551a60c16bc98f","139.140.216.106","Mozilla/5.0 (Macintosh; Intel Mac OS X 10_15_7) AppleWebKit/537.36 (KHTML, like Gecko) Chrome/138.0.0.0 Safari/537.36","Macintosh","Chrome","138.0.0.0","OS X","10_15_7","null","en-US,en;q=0.9","","","","","","21466","VFT","interest","[{""response"":""animals"",""tag"":1},{""response"":""plants"",""tag"":2}]","[2302.5,1897.7]","false","[{""response"":""animals"",""tag"":1},{""response"":""plants"",""tag"":2}]","","","","","","","","","","",""
"","html-button-response","4","27336","0.0-4.0","10","1","2025-07-14 18:24:13","01a1fdd02c2d092b42551a60c16bc98f","139.140.216.106","Mozilla/5.0 (Macintosh; Intel Mac OS X 10_15_7) AppleWebKit/537.36 (KHTML, like Gecko) Chrome/138.0.0.0 Safari/537.36","Macintosh","Chrome","138.0.0.0","OS X","10_15_7","null","en-US,en;q=0.9","","9023","
  <p style=""font-size:20px;""> You will now proceed with the acutal experiment.</p>
  <p style=""font-size:20px;""> ‎</p>
  <p style=""font-size:22px;""> <strong>This experiment has two tasks:</strong></p>
  <p style=""font-size:18px;""> <u>In the first task</u>, you will be presented the name of a category and must type 
  <p style=""font-size:18px;""> in as many items that correspond to that category as you can within the time limit. </p>
  <p style=""font-size:18px;""> <u>In the second task</u>, you will move each of the words that you typed in the first </p>
  <p style=""font-size:18px;""> task around so that the similar ones are proportionately closer together.</p>
  <p style=""font-size:18px;""> The experiment will consist of only 3 ""trials,"" so please be as accurate/precise as 
  <p style=""font-size:18px;""> possible when typing in items and placing the objects, rather than trying to speed through.</p>
  <p style=""font-size:20px;""> ‎</p>
  <p style=""font-size:18px;""> Before you get started, we just want to get you familiar with the experiment layout. We'll walk you through</p>
  <p style=""font-size:18px;""> a practice verbal fluency and spatial arrangement task and provide more detailed instructions.</p>


  <p style=""font-size:18px;""> When you are ready to start, <strong>press Continue.</strong></p>

  ","0","instructions","21466","","","","","","","","","","","","","","","","",""
"","html-button-response","5","41142","0.0-5.0","10","1","2025-07-14 18:24:13","01a1fdd02c2d092b42551a60c16bc98f","139.140.216.106","Mozilla/5.0 (Macintosh; Intel Mac OS X 10_15_7) AppleWebKit/537.36 (KHTML, like Gecko) Chrome/138.0.0.0 Safari/537.36","Macintosh","Chrome","138.0.0.0","OS X","10_15_7","null","en-US,en;q=0.9","","13802","
  <p style=""font-size:22px;""><strong>You are about to perform a verbal fluency task.</strong></p>
  <p style=""font-size:17px;""> In this task, you will be presented the name of a category (e.g., FURNITURE) in capital</p>
  <p style=""font-size:17px;""> letters. Your job is to type in as many items as you can think of that correspond to that</p>
  <p style=""font-size:17px;""> category in 3 minutes. You will be doing this three times on three separate domains.</p> 
  

  <video width = ""600"" height = ""300"" autoplay muted loop style = ""margin-top: 10px;"">
    <source src = ""VFTTutorial.mp4"" type = ""video/mp4"">
  </video>

  <p style=""font-size:17px;""> After you type in each word, press <strong>ENTER</strong> to type in the next </p>
  <p style=""font-size:17px;""> word. When the timer runs out, you will automatically proceed to the next task.</p>

  <p style=""font-size:17px;""> When you're ready, <strong>press Begin</strong> to practice! For the practice trial,</p>
  <p style=""font-size:17px;""> you will be given 1 minute, but remember you will be given 3 minutes for the real task.</p> 





  ","0","instructions","21466","","","","","","","","","","","","","","","","",""
"","html-keyboard-response","6","51145","0.0-6.0-0.0","10","1","2025-07-14 18:24:13","01a1fdd02c2d092b42551a60c16bc98f","139.140.216.106","Mozilla/5.0 (Macintosh; Intel Mac OS X 10_15_7) AppleWebKit/537.36 (KHTML, like Gecko) Chrome/138.0.0.0 Safari/537.36","Macintosh","Chrome","138.0.0.0","OS X","10_15_7","null","en-US,en;q=0.9","","null","
    <div id = ""timer-box""></div>
    <div id = ""response-input-box"">
      <p style = ""font-size:30px;"">Name as many items of <strong>FURNITURE</strong> as you can.</p>
      <div id = ""responses"">
        <input type = ""text"" class = ""furniture-practice-response active"" autofocus />
      </div>
      <p id = ""below-input-text"" style = ""font-size: 14px; margin-top: 10px; color: gray; text-align: left;""> press <strong>enter</strong> after each word!</p>
    </div>
    <style>
      #responses {
      position: relative;
      width: 300px;
      height: 40px; 
      }

      .furniture-practice-response {
        position: absolute;
        top: 0;
        left: 0;
        width: 100%;
        font-size: 20px;
        padding: 5px;
        box-sizing: border-box;
        opacity: 0.5;
      } 

      .furniture-practice-response.active {
      opacity: 1;
      z-index: 999;
      }
    </style>
    ","null","","21466","VFT","furniture-practice","[{""response"":""chair"",""tag"":1},{""response"":""desk"",""tag"":2},{""response"":""bed"",""tag"":3},{""response"":""lamp"",""tag"":4},{""response"":""couch"",""tag"":5}]","[2255,1153.8,671.4,1656.3,2039.1]","","","","","","","","","","","","",""
"","html-button-response","7","89209","0.0-7.0","10","1","2025-07-14 18:24:13","01a1fdd02c2d092b42551a60c16bc98f","139.140.216.106","Mozilla/5.0 (Macintosh; Intel Mac OS X 10_15_7) AppleWebKit/537.36 (KHTML, like Gecko) Chrome/138.0.0.0 Safari/537.36","Macintosh","Chrome","138.0.0.0","OS X","10_15_7","null","en-US,en;q=0.9","","38059","
  <p style=""font-size:22px;""> <strong>Now, you will begin a spatial arrangement task.</strong></p>
  <p style=""font-size:17px;""> In this task, you will be shown the set of words you typed in the last verbal fluency task you performed.</p>
  <p style=""font-size:17px;""> We need to know how similar you think these words are to one another. Your job is to move each word</p>
  <p style=""font-size:17px;""> around so that the similar words are proportionately closer together. That is, you should move them into</p>
  <p style=""font-size:17px;""> space such that the distance between each pair of items represents how similar you think the pair is.</p>
  <p style=""font-size:17px;""> (with closer in space meaning more similar, and farther away in space meaning more dissimilar)</p>

  <video width = ""600"" height = ""400"" autoplay muted loop style = ""margin-top: 10px;"">
    <source src = ""SpAMTutorial.mp4"" type = ""video/mp4"">
  </video>

  <p style=""font-size:17px;""> The words will appear one by one in the top left corner of a box. You can move the words by simply</p>
  <p style=""font-size:17px;""> click/dragging them. If the words seem similar, place them close together. If they seem dissimilar,</p>
  <p style=""font-size:17px;""> place them farther away from each other. You will be doing this three times on three separate domains,</p> 
  <p style=""font-size:17px;""> with a different set of words each time, based the words you typed in the corresponding verbal fluency </p>
  <p style=""font-size:17px;""> task. After dragging each word, the next word will appear. You may rearrange previously placed items.</p>
  <p style=""font-size:17px;""> Note, to complete the trial, <u>all items</u> must be moved into the ""active arena,"" the large central box. </p>
  <p style=""font-size:17px;""> When you are finished arranging the space, click on the little Continue button at the bottom of the screen.</p>
  
    <p style=""font-size:5px;""> ‎</p>

  <p style=""font-size:17px;""> Let's continue with our practice round!</p>
  <p style=""font-size:17px;""> When you're ready, <strong>press Begin.</strong></p>

  ","0","instructions","21466","","","","","","","","","","","","","","","","",""
"","html-button-response","8","109179","0.0-8.0","10","1","2025-07-14 18:24:13","01a1fdd02c2d092b42551a60c16bc98f","139.140.216.106","Mozilla/5.0 (Macintosh; Intel Mac OS X 10_15_7) AppleWebKit/537.36 (KHTML, like Gecko) Chrome/138.0.0.0 Safari/537.36","Macintosh","Chrome","138.0.0.0","OS X","10_15_7","null","en-US,en;q=0.9","","19968","
        <p style=""font-size:20px;"">Arrange each word to the drop box below based on how related they are to one another.</p> 
        <p style=""font-size:18px;"">A new word will appear after <strong>each word</strong> you move.</p>
        <p style=""font-size:17px;""> When you are finished arranging the space, click on the little Continue button at the bottom of the screen.</p>
        <div id=""word-drop-area"" style=""
          margin-top: 40px;        
          height: 400px;        
          border: 2px solid #aaa;        
          padding: 10px;       
          font-size: 20px;       
          text-align: center;       
          color: #888;   
          position: relative;   
          ""></div>
          <p style=""font-size:14px; color: gray;"">Remember, previously placed words can be rearranged if needed!</p>
          <style>       
            .draggable {         
            display: inline-block;         
            background: #eef;         
            padding: 10px;         
            border: 1px solid #aaa;         
            border-radius: 4px;         
            cursor: move;         
            font-size: 18px;         
            margin-bottom: 5px;       
          }     
        </style>    
      ","0","","21466","SpAM","furniture-practice","","","","","[{""word"":""chair"",""id"":""word-1"",""left"":""463px"",""top"":""260px""},{""word"":""desk"",""id"":""word-2"",""left"":""346px"",""top"":""259px""},{""word"":""bed"",""id"":""word-3"",""left"":""558px"",""top"":""184px""},{""word"":""lamp"",""id"":""word-4"",""left"":""339px"",""top"":""194px""},{""word"":""couch"",""id"":""word-5"",""left"":""548px"",""top"":""258px""}]","","","","","","","","","",""
"","html-button-response","9","119425","0.0-9.0","10","1","2025-07-14 18:24:13","01a1fdd02c2d092b42551a60c16bc98f","139.140.216.106","Mozilla/5.0 (Macintosh; Intel Mac OS X 10_15_7) AppleWebKit/537.36 (KHTML, like Gecko) Chrome/138.0.0.0 Safari/537.36","Macintosh","Chrome","138.0.0.0","OS X","10_15_7","null","en-US,en;q=0.9","","10244","
  <p style=""font-size:20px;"">You have completed the practice round!</p>
  <p style=""font-size:18x;""> Now, you will begin the actual task, consisting of three rounds with different categories.</p>
  <p style=""font-size:18x;""> Again, your first task is to first type in as many items as you can think of that correspond to the given category</p>
  <p style=""font-size:18x;""> within the time limit. Then, you will arrange the items you input previously in the box provided based on how related they are.</p>

  <p style=""font-size:10px;""> ‎</p>
  <p style=""font-size:18px;""> When you're ready, <strong>press Begin</strong> to start the verbal fluency task.</p>

  ","0","instructions","21466","","","","","","","","","","","","","","","","",""
"","html-keyboard-response","10","129427","0.0-10.0-0.0","10","1","2025-07-14 18:24:13","01a1fdd02c2d092b42551a60c16bc98f","139.140.216.106","Mozilla/5.0 (Macintosh; Intel Mac OS X 10_15_7) AppleWebKit/537.36 (KHTML, like Gecko) Chrome/138.0.0.0 Safari/537.36","Macintosh","Chrome","138.0.0.0","OS X","10_15_7","null","en-US,en;q=0.9","","null","
    <div id = ""timer-box""></div>
    <div id = ""response-input-box"">
      <p style = ""font-size:30px;"">Name as many <strong>ANIMALS</strong> as you can.</p>
      <div id = ""responses"">
        <input type = ""text"" class = ""animals-response active"" autofocus />
      </div>
      <p id = ""below-input-text"" style = ""font-size: 14px; margin-top: 10px; color: gray; text-align: left;""> press <strong>enter</strong> after each word!</p>
    </div>
    <style>
      #responses {
      position: relative;
      width: 300px;
      height: 40px; 
      }

      .animals-response {
        position: absolute;
        top: 0;
        left: 0;
        width: 100%;
        font-size: 20px;
        padding: 5px;
        box-sizing: border-box;
        opacity: 0.5;
      } 

      .animals-response.active {
      opacity: 1;
      z-index: 999;
      }
    </style>
    ","null","","21466","VFT","animals","[{""response"":""dog"",""tag"":1},{""response"":""cat"",""tag"":2},{""response"":""wolf"",""tag"":3},{""response"":""hyena"",""tag"":4},{""response"":""beaver"",""tag"":5},{""response"":""aardvark"",""tag"":6}]","[2451.9,923.9,1541.8,1416.5,1457.4,2116.5]","","","","","","","","","","","","",""
"","html-button-response","11","133991","0.0-11.0","10","1","2025-07-14 18:24:13","01a1fdd02c2d092b42551a60c16bc98f","139.140.216.106","Mozilla/5.0 (Macintosh; Intel Mac OS X 10_15_7) AppleWebKit/537.36 (KHTML, like Gecko) Chrome/138.0.0.0 Safari/537.36","Macintosh","Chrome","138.0.0.0","OS X","10_15_7","null","en-US,en;q=0.9","","4561","
  <p style=""font-size:20px;""> <strong>You are moving to the spatial arrangement task.</strong></p>
  <p style=""font-size:16px;""> As a reminder, in this task, you will be shown a set of words.</p>
  <p style=""font-size:16px;""> We need to know how similar you think these words are to one another.</p>
  <p style=""font-size:16px;""> To indicate your perception of similarity, you will move each word</p> 
  <p style=""font-size:16px;""> around so that the similar ones are proportionately closer together.</p>
  <p style=""font-size:16px;""> If the words seem similar, place them close together, if they seem</p>
  <p style=""font-size:16px;""> dissimilar, place them farther away from each other.</p>
  <p style=""font-size:10px;""> ‎</p>
  <p style=""font-size:18px;""> Press <strong>Begin</strong> to start.</p>

  ","0","instructions","21466","","","","","","","","","","","","","","","","",""
"","html-button-response","12","154208","0.0-12.0","10","1","2025-07-14 18:24:13","01a1fdd02c2d092b42551a60c16bc98f","139.140.216.106","Mozilla/5.0 (Macintosh; Intel Mac OS X 10_15_7) AppleWebKit/537.36 (KHTML, like Gecko) Chrome/138.0.0.0 Safari/537.36","Macintosh","Chrome","138.0.0.0","OS X","10_15_7","null","en-US,en;q=0.9","","20215","
        <p style=""font-size:20px;"">Arrange each word to the drop box below based on how related they are to one another.</p> 
        <p style=""font-size:18px;"">A new word will appear after <strong>each word</strong> you move.</p>
        <p style=""font-size:17px;""> When you are finished arranging the space, click on the little Continue button at the bottom of the screen.</p>
        <div id=""word-drop-area"" style=""
          margin-top: 40px;        
          height: 400px;        
          border: 2px solid #aaa;        
          padding: 10px;       
          font-size: 20px;       
          text-align: center;       
          color: #888;   
          position: relative;   
          ""></div>
          <p style=""font-size:14px; color: gray;"">Remember, previously placed words can be rearranged if needed!</p>
          <style>       
            .draggable {         
            display: inline-block;         
            background: #eef;         
            padding: 10px;         
            border: 1px solid #aaa;         
            border-radius: 4px;         
            cursor: move;         
            font-size: 18px;         
            margin-bottom: 5px;       
          }     
        </style>    
      ","0","","21466","SpAM","animals","","","","","[{""word"":""dog"",""id"":""word-1"",""left"":""334px"",""top"":""169px""},{""word"":""cat"",""id"":""word-2"",""left"":""418px"",""top"":""171px""},{""word"":""wolf"",""id"":""word-3"",""left"":""272px"",""top"":""168px""},{""word"":""hyena"",""id"":""word-4"",""left"":""260px"",""top"":""114px""},{""word"":""beaver"",""id"":""word-5"",""left"":""574px"",""top"":""74px""},{""word"":""aardvark"",""id"":""word-6"",""left"":""670px"",""top"":""149px""}]","","","","","","","","","",""
"","html-button-response","13","156958","0.0-13.0","10","1","2025-07-14 18:24:13","01a1fdd02c2d092b42551a60c16bc98f","139.140.216.106","Mozilla/5.0 (Macintosh; Intel Mac OS X 10_15_7) AppleWebKit/537.36 (KHTML, like Gecko) Chrome/138.0.0.0 Safari/537.36","Macintosh","Chrome","138.0.0.0","OS X","10_15_7","null","en-US,en;q=0.9","","2748","
  <p style=""font-size:18px;""> <strong>You will now move to the next category.</strong></p>
  <p style=""font-size:16px;""> As a reminder, in this task, you will type as many words as you can </p> 
  <p style=""font-size:16px;""> think of that correspond to the category presented in capital letters.</p>
  <p style=""font-size:18px;""> Press <strong>Begin</strong> to start.</p>

  ","0","instructions","21466","","","","","","","","","","","","","","","","",""
"","html-keyboard-response","14","166959","0.0-14.0-0.0","10","1","2025-07-14 18:24:13","01a1fdd02c2d092b42551a60c16bc98f","139.140.216.106","Mozilla/5.0 (Macintosh; Intel Mac OS X 10_15_7) AppleWebKit/537.36 (KHTML, like Gecko) Chrome/138.0.0.0 Safari/537.36","Macintosh","Chrome","138.0.0.0","OS X","10_15_7","null","en-US,en;q=0.9","","null","
    <div id = ""timer-box""></div>
    <div id = ""response-input-box"">
      <p style = ""font-size:30px;"">Name as many items of <strong>CLOTHING</strong> as you can.</p>
      <div id = ""responses"">
        <input type = ""text"" class = ""clothes-response active"" autofocus />
      </div>
      <p id = ""below-input-text"" style = ""font-size: 14px; margin-top: 10px; color: gray; text-align: left;""> press <strong>enter</strong> after each word!</p>
    </div>
    <style>
      #responses {
      position: relative;
      width: 300px;
      height: 40px; 
      }

      .clothes-response {
        position: absolute;
        top: 0;
        left: 0;
        width: 100%;
        font-size: 20px;
        padding: 5px;
        box-sizing: border-box;
        opacity: 0.5;
      } 

      .clothes-response.active {
      opacity: 1;
      z-index: 999;
      }
    </style>
    ","null","","21466","VFT","clothes","[{""response"":""shirt"",""tag"":1},{""response"":""pants"",""tag"":2},{""response"":""blouse"",""tag"":3},{""response"":""jacket"",""tag"":4},{""response"":""puffer"",""tag"":5}]","[2029.7,2072.2,2201.8,1410.4,1805.4]","","","","","","","","","","","","",""
"","html-button-response","15","169941","0.0-15.0","10","1","2025-07-14 18:24:13","01a1fdd02c2d092b42551a60c16bc98f","139.140.216.106","Mozilla/5.0 (Macintosh; Intel Mac OS X 10_15_7) AppleWebKit/537.36 (KHTML, like Gecko) Chrome/138.0.0.0 Safari/537.36","Macintosh","Chrome","138.0.0.0","OS X","10_15_7","null","en-US,en;q=0.9","","2980","
  <p style=""font-size:20px;""> <strong>You are moving to the spatial arrangement task.</strong></p>
  <p style=""font-size:16px;""> As a reminder, in this task, you will be shown a set of words.</p>
  <p style=""font-size:16px;""> We need to know how similar you think these words are to one another.</p>
  <p style=""font-size:16px;""> To indicate your perception of similarity, you will move each word</p> 
  <p style=""font-size:16px;""> around so that the similar ones are proportionately closer together.</p>
  <p style=""font-size:16px;""> If the words seem similar, place them close together, if they seem</p>
  <p style=""font-size:16px;""> dissimilar, place them farther away from each other.</p>
  <p style=""font-size:10px;""> ‎</p>
  <p style=""font-size:18px;""> Press <strong>Begin</strong> to start.</p>

  ","0","instructions","21466","","","","","","","","","","","","","","","","",""
"","html-button-response","16","193328","0.0-16.0","10","1","2025-07-14 18:24:13","01a1fdd02c2d092b42551a60c16bc98f","139.140.216.106","Mozilla/5.0 (Macintosh; Intel Mac OS X 10_15_7) AppleWebKit/537.36 (KHTML, like Gecko) Chrome/138.0.0.0 Safari/537.36","Macintosh","Chrome","138.0.0.0","OS X","10_15_7","null","en-US,en;q=0.9","","23386","
        <p style=""font-size:20px;"">Arrange each word to the drop box below based on how related they are to one another.</p> 
        <p style=""font-size:18px;"">A new word will appear after <strong>each word</strong> you move.</p>
        <p style=""font-size:17px;""> When you are finished arranging the space, click on the little Continue button at the bottom of the screen.</p>
        <div id=""word-drop-area"" style=""
          margin-top: 40px;        
          height: 400px;        
          border: 2px solid #aaa;        
          padding: 10px;       
          font-size: 20px;       
          text-align: center;       
          color: #888;   
          position: relative;   
          ""></div>
          <p style=""font-size:14px; color: gray;"">Remember, previously placed words can be rearranged if needed!</p>
          <style>       
            .draggable {         
            display: inline-block;         
            background: #eef;         
            padding: 10px;         
            border: 1px solid #aaa;         
            border-radius: 4px;         
            cursor: move;         
            font-size: 18px;         
            margin-bottom: 5px;       
          }     
        </style>    
      ","0","","21466","SpAM","clothes","","","","","[{""word"":""shirt"",""id"":""word-1"",""left"":""262px"",""top"":""194px""},{""word"":""pants"",""id"":""word-2"",""left"":""261px"",""top"":""278px""},{""word"":""blouse"",""id"":""word-3"",""left"":""177px"",""top"":""191px""},{""word"":""jacket"",""id"":""word-4"",""left"":""327px"",""top"":""194px""},{""word"":""puffer"",""id"":""word-5"",""left"":""325px"",""top"":""140px""}]","","","","","","","","","",""
"","html-keyboard-response","17","203331","0.0-17.0-0.0","10","1","2025-07-14 18:24:13","01a1fdd02c2d092b42551a60c16bc98f","139.140.216.106","Mozilla/5.0 (Macintosh; Intel Mac OS X 10_15_7) AppleWebKit/537.36 (KHTML, like Gecko) Chrome/138.0.0.0 Safari/537.36","Macintosh","Chrome","138.0.0.0","OS X","10_15_7","null","en-US,en;q=0.9","","null","
    <div id = ""timer-box""></div>
    <div id = ""response-input-box"">
      <p style = ""font-size:30px;"">Name as many <strong>TOOLS</strong> as you can.</p>
      <div id = ""responses"">
        <input type = ""text"" class = ""tools-response active"" autofocus />
      </div>
      <p id = ""below-input-text"" style = ""font-size: 14px; margin-top: 10px; color: gray; text-align: left;""> press <strong>enter</strong> after each word!</p>
    </div>
    <style>
      #responses {
      position: relative;
      width: 300px;
      height: 40px; 
      }

      .tools-response {
        position: absolute;
        top: 0;
        left: 0;
        width: 100%;
        font-size: 20px;
        padding: 5px;
        box-sizing: border-box;
        opacity: 0.5;
      } 

      .tools-response.active {
      opacity: 1;
      z-index: 999;
      }
    </style>
    ","null","","21466","VFT","tools","[{""response"":""hammer"",""tag"":1},{""response"":""screwdrive"",""tag"":2}]","[6465.1,2159.9]","","","","","","","","","","","","",""
"","html-button-response","18","205816","0.0-18.0","10","1","2025-07-14 18:24:13","01a1fdd02c2d092b42551a60c16bc98f","139.140.216.106","Mozilla/5.0 (Macintosh; Intel Mac OS X 10_15_7) AppleWebKit/537.36 (KHTML, like Gecko) Chrome/138.0.0.0 Safari/537.36","Macintosh","Chrome","138.0.0.0","OS X","10_15_7","null","en-US,en;q=0.9","","2483","
  <p style=""font-size:20px;""> <strong>You are moving to the spatial arrangement task.</strong></p>
  <p style=""font-size:16px;""> As a reminder, in this task, you will be shown a set of words.</p>
  <p style=""font-size:16px;""> We need to know how similar you think these words are to one another.</p>
  <p style=""font-size:16px;""> To indicate your perception of similarity, you will move each word</p> 
  <p style=""font-size:16px;""> around so that the similar ones are proportionately closer together.</p>
  <p style=""font-size:16px;""> If the words seem similar, place them close together, if they seem</p>
  <p style=""font-size:16px;""> dissimilar, place them farther away from each other.</p>
  <p style=""font-size:10px;""> ‎</p>
  <p style=""font-size:18px;""> Press <strong>Begin</strong> to start.</p>

  ","0","instructions","21466","","","","","","","","","","","","","","","","",""
"","html-button-response","19","211887","0.0-19.0","10","1","2025-07-14 18:24:13","01a1fdd02c2d092b42551a60c16bc98f","139.140.216.106","Mozilla/5.0 (Macintosh; Intel Mac OS X 10_15_7) AppleWebKit/537.36 (KHTML, like Gecko) Chrome/138.0.0.0 Safari/537.36","Macintosh","Chrome","138.0.0.0","OS X","10_15_7","null","en-US,en;q=0.9","","6069","
        <p style=""font-size:20px;"">Arrange each word to the drop box below based on how related they are to one another.</p> 
        <p style=""font-size:18px;"">A new word will appear after <strong>each word</strong> you move.</p>
        <p style=""font-size:17px;""> When you are finished arranging the space, click on the little Continue button at the bottom of the screen.</p>
        <div id=""word-drop-area"" style=""
          margin-top: 40px;        
          height: 400px;        
          border: 2px solid #aaa;        
          padding: 10px;       
          font-size: 20px;       
          text-align: center;       
          color: #888;   
          position: relative;   
          ""></div>
          <p style=""font-size:14px; color: gray;"">Remember, previously placed words can be rearranged if needed!</p>
          <style>       
            .draggable {         
            display: inline-block;         
            background: #eef;         
            padding: 10px;         
            border: 1px solid #aaa;         
            border-radius: 4px;         
            cursor: move;         
            font-size: 18px;         
            margin-bottom: 5px;       
          }     
        </style>    
      ","0","","21466","SpAM","tools","","","","","[{""word"":""hammer"",""id"":""word-1"",""left"":""362px"",""top"":""169px""},{""word"":""screwdrive"",""id"":""word-2"",""left"":""237px"",""top"":""166px""}]","","","","","","","","","",""
"","html-button-response","20","213439","0.0-20.0","10","1","2025-07-14 18:24:13","01a1fdd02c2d092b42551a60c16bc98f","139.140.216.106","Mozilla/5.0 (Macintosh; Intel Mac OS X 10_15_7) AppleWebKit/537.36 (KHTML, like Gecko) Chrome/138.0.0.0 Safari/537.36","Macintosh","Chrome","138.0.0.0","OS X","10_15_7","null","en-US,en;q=0.9","","1552","
  <p style=""font-size:18px;""> <strong>You will now move to the next category.</strong></p>
  <p style=""font-size:16px;""> As a reminder, in this task, you will type as many words as you can </p> 
  <p style=""font-size:16px;""> think of that correspond to the category presented in capital letters.</p>
  <p style=""font-size:18px;""> Press <strong>Begin</strong> to start.</p>

  ","0","instructions","21466","","","","","","","","","","","","","","","","",""
"","html-keyboard-response","21","223441","0.0-21.0-0.0","10","1","2025-07-14 18:24:13","01a1fdd02c2d092b42551a60c16bc98f","139.140.216.106","Mozilla/5.0 (Macintosh; Intel Mac OS X 10_15_7) AppleWebKit/537.36 (KHTML, like Gecko) Chrome/138.0.0.0 Safari/537.36","Macintosh","Chrome","138.0.0.0","OS X","10_15_7","null","en-US,en;q=0.9","","null","
    <div id = ""timer-box""></div>
    <div id = ""response-input-box"">
      <p style = ""font-size:30px;"">Name as many <strong>SPORTS</strong> as you can.</p>
      <div id = ""responses"">
        <input type = ""text"" class = ""sports-response active"" autofocus />
      </div>
      <p id = ""below-input-text"" style = ""font-size: 14px; margin-top: 10px; color: gray; text-align: left;""> press <strong>enter</strong> after each word!</p>
    </div>
    <style>
      #responses {
      position: relative;
      width: 300px;
      height: 40px; 
      }

      .sports-response {
        position: absolute;
        top: 0;
        left: 0;
        width: 100%;
        font-size: 20px;
        padding: 5px;
        box-sizing: border-box;
        opacity: 0.5;
      } 

      .sports-response.active {
      opacity: 1;
      z-index: 999;
      }
    </style>
    ","null","","21466","VFT","sports","[{""response"":""volleyball"",""tag"":1},{""response"":""soccer"",""tag"":2},{""response"":""baseball"",""tag"":3}]","[3753.8,1390.5,2213.2]","","","","","","","","","","","","",""
"","html-button-response","22","225428","0.0-22.0","10","1","2025-07-14 18:24:13","01a1fdd02c2d092b42551a60c16bc98f","139.140.216.106","Mozilla/5.0 (Macintosh; Intel Mac OS X 10_15_7) AppleWebKit/537.36 (KHTML, like Gecko) Chrome/138.0.0.0 Safari/537.36","Macintosh","Chrome","138.0.0.0","OS X","10_15_7","null","en-US,en;q=0.9","","1985","
  <p style=""font-size:20px;""> <strong>You are moving to the spatial arrangement task.</strong></p>
  <p style=""font-size:16px;""> As a reminder, in this task, you will be shown a set of words.</p>
  <p style=""font-size:16px;""> We need to know how similar you think these words are to one another.</p>
  <p style=""font-size:16px;""> To indicate your perception of similarity, you will move each word</p> 
  <p style=""font-size:16px;""> around so that the similar ones are proportionately closer together.</p>
  <p style=""font-size:16px;""> If the words seem similar, place them close together, if they seem</p>
  <p style=""font-size:16px;""> dissimilar, place them farther away from each other.</p>
  <p style=""font-size:10px;""> ‎</p>
  <p style=""font-size:18px;""> Press <strong>Begin</strong> to start.</p>

  ","0","instructions","21466","","","","","","","","","","","","","","","","",""
"","html-button-response","23","261303","0.0-23.0","10","1","2025-07-14 18:24:13","01a1fdd02c2d092b42551a60c16bc98f","139.140.216.106","Mozilla/5.0 (Macintosh; Intel Mac OS X 10_15_7) AppleWebKit/537.36 (KHTML, like Gecko) Chrome/138.0.0.0 Safari/537.36","Macintosh","Chrome","138.0.0.0","OS X","10_15_7","null","en-US,en;q=0.9","","35874","
        <p style=""font-size:20px;"">Arrange each word to the drop box below based on how related they are to one another.</p> 
        <p style=""font-size:18px;"">A new word will appear after <strong>each word</strong> you move.</p>
        <p style=""font-size:17px;""> When you are finished arranging the space, click on the little Continue button at the bottom of the screen.</p>
        <div id=""word-drop-area"" style=""
          margin-top: 40px;        
          height: 400px;        
          border: 2px solid #aaa;        
          padding: 10px;       
          font-size: 20px;       
          text-align: center;       
          color: #888;   
          position: relative;   
          ""></div>
          <p style=""font-size:14px; color: gray;"">Remember, previously placed words can be rearranged if needed!</p>
          <style>       
            .draggable {         
            display: inline-block;         
            background: #eef;         
            padding: 10px;         
            border: 1px solid #aaa;         
            border-radius: 4px;         
            cursor: move;         
            font-size: 18px;         
            margin-bottom: 5px;       
          }     
        </style>    
      ","0","","21466","SpAM","sports","","","","","[{""word"":""volleyball"",""id"":""word-1"",""left"":""336px"",""top"":""162px""},{""word"":""soccer"",""id"":""word-2"",""left"":""114px"",""top"":""162px""},{""word"":""baseball"",""id"":""word-3"",""left"":""349px"",""top"":""276px""}]","","","","","","","","","",""
"","html-button-response","24","263182","0.0-24.0","10","1","2025-07-14 18:24:13","01a1fdd02c2d092b42551a60c16bc98f","139.140.216.106","Mozilla/5.0 (Macintosh; Intel Mac OS X 10_15_7) AppleWebKit/537.36 (KHTML, like Gecko) Chrome/138.0.0.0 Safari/537.36","Macintosh","Chrome","138.0.0.0","OS X","10_15_7","null","en-US,en;q=0.9","","1878","
  <p style=""font-size:18px;""> <strong>You will now move to the next category.</strong></p>
  <p style=""font-size:16px;""> As a reminder, in this task, you will type as many words as you can </p> 
  <p style=""font-size:16px;""> think of that correspond to the category presented in capital letters.</p>
  <p style=""font-size:18px;""> Press <strong>Begin</strong> to start.</p>

  ","0","instructions","21466","","","","","","","","","","","","","","","","",""
"","html-keyboard-response","25","273185","0.0-25.0-0.0","10","1","2025-07-14 18:24:13","01a1fdd02c2d092b42551a60c16bc98f","139.140.216.106","Mozilla/5.0 (Macintosh; Intel Mac OS X 10_15_7) AppleWebKit/537.36 (KHTML, like Gecko) Chrome/138.0.0.0 Safari/537.36","Macintosh","Chrome","138.0.0.0","OS X","10_15_7","null","en-US,en;q=0.9","","null","
    <div id = ""timer-box""></div>
    <div id = ""response-input-box"">
      <p style = ""font-size:30px;"">Name as many <strong>OCCUPATIONS</strong> as you can.</p>
      <div id = ""responses"">
        <input type = ""text"" class = ""occupations-response active"" autofocus />
      </div>
      <p id = ""below-input-text"" style = ""font-size: 14px; margin-top: 10px; color: gray; text-align: left;""> press <strong>enter</strong> after each word!</p>
    </div>
    <style>
      #responses {
      position: relative;
      width: 300px;
      height: 40px; 
      }

      .occupations-response {
        position: absolute;
        top: 0;
        left: 0;
        width: 100%;
        font-size: 20px;
        padding: 5px;
        box-sizing: border-box;
        opacity: 0.5;
      } 

      .occupations-response.active {
      opacity: 1;
      z-index: 999;
      }
    </style>
    ","null","","21466","VFT","occupations","[{""response"":""doctor"",""tag"":1},{""response"":""physician"",""tag"":2}]","[3955.6,4591.8]","","","","","","","","","","","","",""
"","html-button-response","26","275237","0.0-26.0","10","1","2025-07-14 18:24:13","01a1fdd02c2d092b42551a60c16bc98f","139.140.216.106","Mozilla/5.0 (Macintosh; Intel Mac OS X 10_15_7) AppleWebKit/537.36 (KHTML, like Gecko) Chrome/138.0.0.0 Safari/537.36","Macintosh","Chrome","138.0.0.0","OS X","10_15_7","null","en-US,en;q=0.9","","2049","
  <p style=""font-size:20px;""> <strong>You are moving to the spatial arrangement task.</strong></p>
  <p style=""font-size:16px;""> As a reminder, in this task, you will be shown a set of words.</p>
  <p style=""font-size:16px;""> We need to know how similar you think these words are to one another.</p>
  <p style=""font-size:16px;""> To indicate your perception of similarity, you will move each word</p> 
  <p style=""font-size:16px;""> around so that the similar ones are proportionately closer together.</p>
  <p style=""font-size:16px;""> If the words seem similar, place them close together, if they seem</p>
  <p style=""font-size:16px;""> dissimilar, place them farther away from each other.</p>
  <p style=""font-size:10px;""> ‎</p>
  <p style=""font-size:18px;""> Press <strong>Begin</strong> to start.</p>

  ","0","instructions","21466","","","","","","","","","","","","","","","","",""
"","html-button-response","27","280928","0.0-27.0","10","1","2025-07-14 18:24:13","01a1fdd02c2d092b42551a60c16bc98f","139.140.216.106","Mozilla/5.0 (Macintosh; Intel Mac OS X 10_15_7) AppleWebKit/537.36 (KHTML, like Gecko) Chrome/138.0.0.0 Safari/537.36","Macintosh","Chrome","138.0.0.0","OS X","10_15_7","null","en-US,en;q=0.9","","5689","
        <p style=""font-size:20px;"">Arrange each word to the drop box below based on how related they are to one another.</p> 
        <p style=""font-size:18px;"">A new word will appear after <strong>each word</strong> you move.</p>
        <p style=""font-size:17px;""> When you are finished arranging the space, click on the little Continue button at the bottom of the screen.</p>
        <div id=""word-drop-area"" style=""
          margin-top: 40px;        
          height: 400px;        
          border: 2px solid #aaa;        
          padding: 10px;       
          font-size: 20px;       
          text-align: center;       
          color: #888;   
          position: relative;   
          ""></div>
          <p style=""font-size:14px; color: gray;"">Remember, previously placed words can be rearranged if needed!</p>
          <style>       
            .draggable {         
            display: inline-block;         
            background: #eef;         
            padding: 10px;         
            border: 1px solid #aaa;         
            border-radius: 4px;         
            cursor: move;         
            font-size: 18px;         
            margin-bottom: 5px;       
          }     
        </style>    
      ","0","","21466","SpAM","occupations","","","","","[{""word"":""doctor"",""id"":""word-1"",""left"":""344px"",""top"":""169px""},{""word"":""physician"",""id"":""word-2"",""left"":""233px"",""top"":""170px""}]","","","","","","","","","",""
"","html-button-response","28","282611","0.0-28.0","10","1","2025-07-14 18:24:13","01a1fdd02c2d092b42551a60c16bc98f","139.140.216.106","Mozilla/5.0 (Macintosh; Intel Mac OS X 10_15_7) AppleWebKit/537.36 (KHTML, like Gecko) Chrome/138.0.0.0 Safari/537.36","Macintosh","Chrome","138.0.0.0","OS X","10_15_7","null","en-US,en;q=0.9","","1682","
  <p style=""font-size:18px;""> <strong>You will now move to the next category.</strong></p>
  <p style=""font-size:16px;""> As a reminder, in this task, you will type as many words as you can </p> 
  <p style=""font-size:16px;""> think of that correspond to the category presented in capital letters.</p>
  <p style=""font-size:18px;""> Press <strong>Begin</strong> to start.</p>

  ","0","instructions","21466","","","","","","","","","","","","","","","","",""
"","html-keyboard-response","29","292613","0.0-29.0-0.0","10","1","2025-07-14 18:24:13","01a1fdd02c2d092b42551a60c16bc98f","139.140.216.106","Mozilla/5.0 (Macintosh; Intel Mac OS X 10_15_7) AppleWebKit/537.36 (KHTML, like Gecko) Chrome/138.0.0.0 Safari/537.36","Macintosh","Chrome","138.0.0.0","OS X","10_15_7","null","en-US,en;q=0.9","","null","
    <div id = ""timer-box""></div>
    <div id = ""response-input-box"">
      <p style = ""font-size:30px;"">Name as many <strong>FOODS</strong> as you can.</p>
      <div id = ""responses"">
        <input type = ""text"" class = ""foods-response active"" autofocus />
      </div>
      <p id = ""below-input-text"" style = ""font-size: 14px; margin-top: 10px; color: gray; text-align: left;""> press <strong>enter</strong> after each word!</p>
    </div>
    <style>
      #responses {
      position: relative;
      width: 300px;
      height: 40px; 
      }

      .foods-response {
        position: absolute;
        top: 0;
        left: 0;
        width: 100%;
        font-size: 20px;
        padding: 5px;
        box-sizing: border-box;
        opacity: 0.5;
      } 

      .foods-response.active {
      opacity: 1;
      z-index: 999;
      }
    </style>
    ","null","","21466","VFT","foods","[{""response"":""apple"",""tag"":1},{""response"":""cherry"",""tag"":2},{""response"":""cookie"",""tag"":3},{""response"":""tofu"",""tag"":4},{""response"":""lemon"",""tag"":5}]","[2510.5,1416.1,1232.7,2016.7,1264.8]","","","","","","","","","","","","",""
"","html-button-response","30","294291","0.0-30.0","10","1","2025-07-14 18:24:13","01a1fdd02c2d092b42551a60c16bc98f","139.140.216.106","Mozilla/5.0 (Macintosh; Intel Mac OS X 10_15_7) AppleWebKit/537.36 (KHTML, like Gecko) Chrome/138.0.0.0 Safari/537.36","Macintosh","Chrome","138.0.0.0","OS X","10_15_7","null","en-US,en;q=0.9","","1675","
  <p style=""font-size:20px;""> <strong>You are moving to the spatial arrangement task.</strong></p>
  <p style=""font-size:16px;""> As a reminder, in this task, you will be shown a set of words.</p>
  <p style=""font-size:16px;""> We need to know how similar you think these words are to one another.</p>
  <p style=""font-size:16px;""> To indicate your perception of similarity, you will move each word</p> 
  <p style=""font-size:16px;""> around so that the similar ones are proportionately closer together.</p>
  <p style=""font-size:16px;""> If the words seem similar, place them close together, if they seem</p>
  <p style=""font-size:16px;""> dissimilar, place them farther away from each other.</p>
  <p style=""font-size:10px;""> ‎</p>
  <p style=""font-size:18px;""> Press <strong>Begin</strong> to start.</p>

  ","0","instructions","21466","","","","","","","","","","","","","","","","",""
"","html-button-response","31","307249","0.0-31.0","10","1","2025-07-14 18:24:13","01a1fdd02c2d092b42551a60c16bc98f","139.140.216.106","Mozilla/5.0 (Macintosh; Intel Mac OS X 10_15_7) AppleWebKit/537.36 (KHTML, like Gecko) Chrome/138.0.0.0 Safari/537.36","Macintosh","Chrome","138.0.0.0","OS X","10_15_7","null","en-US,en;q=0.9","","12957","
        <p style=""font-size:20px;"">Arrange each word to the drop box below based on how related they are to one another.</p> 
        <p style=""font-size:18px;"">A new word will appear after <strong>each word</strong> you move.</p>
        <p style=""font-size:17px;""> When you are finished arranging the space, click on the little Continue button at the bottom of the screen.</p>
        <div id=""word-drop-area"" style=""
          margin-top: 40px;        
          height: 400px;        
          border: 2px solid #aaa;        
          padding: 10px;       
          font-size: 20px;       
          text-align: center;       
          color: #888;   
          position: relative;   
          ""></div>
          <p style=""font-size:14px; color: gray;"">Remember, previously placed words can be rearranged if needed!</p>
          <style>       
            .draggable {         
            display: inline-block;         
            background: #eef;         
            padding: 10px;         
            border: 1px solid #aaa;         
            border-radius: 4px;         
            cursor: move;         
            font-size: 18px;         
            margin-bottom: 5px;       
          }     
        </style>    
      ","0","","21466","SpAM","foods","","","","","[{""word"":""apple"",""id"":""word-1"",""left"":""295px"",""top"":""151px""},{""word"":""cherry"",""id"":""word-2"",""left"":""213px"",""top"":""152px""},{""word"":""cookie"",""id"":""word-3"",""left"":""533px"",""top"":""154px""},{""word"":""tofu"",""id"":""word-4"",""left"":""416px"",""top"":""53px""},{""word"":""lemon"",""id"":""word-5"",""left"":""219px"",""top"":""215px""}]","","","","","","","","","",""
"","html-button-response","32","308294","0.0-32.0","10","1","2025-07-14 18:24:13","01a1fdd02c2d092b42551a60c16bc98f","139.140.216.106","Mozilla/5.0 (Macintosh; Intel Mac OS X 10_15_7) AppleWebKit/537.36 (KHTML, like Gecko) Chrome/138.0.0.0 Safari/537.36","Macintosh","Chrome","138.0.0.0","OS X","10_15_7","null","en-US,en;q=0.9","","1043","
  <p style=""font-size:18px;""> <strong>You will now move to the next category.</strong></p>
  <p style=""font-size:16px;""> As a reminder, in this task, you will type as many words as you can </p> 
  <p style=""font-size:16px;""> think of that correspond to the category presented in capital letters.</p>
  <p style=""font-size:18px;""> Press <strong>Begin</strong> to start.</p>

  ","0","instructions","21466","","","","","","","","","","","","","","","","",""
"","html-keyboard-response","33","318297","0.0-33.0-0.0","10","1","2025-07-14 18:24:13","01a1fdd02c2d092b42551a60c16bc98f","139.140.216.106","Mozilla/5.0 (Macintosh; Intel Mac OS X 10_15_7) AppleWebKit/537.36 (KHTML, like Gecko) Chrome/138.0.0.0 Safari/537.36","Macintosh","Chrome","138.0.0.0","OS X","10_15_7","null","en-US,en;q=0.9","","null","
    <div id = ""timer-box""></div>
    <div id = ""response-input-box"">
      <p style = ""font-size:30px;"">Name as many <strong>MUSIC GENRES</strong> as you can.</p>
      <div id = ""responses"">
        <input type = ""text"" class = ""music-genres-response active"" autofocus />
      </div>
      <p id = ""below-input-text"" style = ""font-size: 14px; margin-top: 10px; color: gray; text-align: left;""> press <strong>enter</strong> after each word!</p>
    </div>
    <style>
      #responses {
      position: relative;
      width: 300px;
      height: 40px; 
      }

      .music-genres-response {
        position: absolute;
        top: 0;
        left: 0;
        width: 100%;
        font-size: 20px;
        padding: 5px;
        box-sizing: border-box;
        opacity: 0.5;
      } 

      .music-genres-response.active {
      opacity: 1;
      z-index: 999;
      }
    </style>
    ","null","","21466","VFT","music-genres","[{""response"":""pop"",""tag"":1},{""response"":""rock"",""tag"":2},{""response"":""indie"",""tag"":3},{""response"":""metal"",""tag"":4}]","[1952.3,3478.6,1279.9,1803.4]","","","","","","","","","","","","",""
"","html-button-response","34","319269","0.0-34.0","10","1","2025-07-14 18:24:13","01a1fdd02c2d092b42551a60c16bc98f","139.140.216.106","Mozilla/5.0 (Macintosh; Intel Mac OS X 10_15_7) AppleWebKit/537.36 (KHTML, like Gecko) Chrome/138.0.0.0 Safari/537.36","Macintosh","Chrome","138.0.0.0","OS X","10_15_7","null","en-US,en;q=0.9","","970","
  <p style=""font-size:20px;""> <strong>You are moving to the spatial arrangement task.</strong></p>
  <p style=""font-size:16px;""> As a reminder, in this task, you will be shown a set of words.</p>
  <p style=""font-size:16px;""> We need to know how similar you think these words are to one another.</p>
  <p style=""font-size:16px;""> To indicate your perception of similarity, you will move each word</p> 
  <p style=""font-size:16px;""> around so that the similar ones are proportionately closer together.</p>
  <p style=""font-size:16px;""> If the words seem similar, place them close together, if they seem</p>
  <p style=""font-size:16px;""> dissimilar, place them farther away from each other.</p>
  <p style=""font-size:10px;""> ‎</p>
  <p style=""font-size:18px;""> Press <strong>Begin</strong> to start.</p>

  ","0","instructions","21466","","","","","","","","","","","","","","","","",""
"","html-button-response","35","330541","0.0-35.0","10","1","2025-07-14 18:24:13","01a1fdd02c2d092b42551a60c16bc98f","139.140.216.106","Mozilla/5.0 (Macintosh; Intel Mac OS X 10_15_7) AppleWebKit/537.36 (KHTML, like Gecko) Chrome/138.0.0.0 Safari/537.36","Macintosh","Chrome","138.0.0.0","OS X","10_15_7","null","en-US,en;q=0.9","","11270","
        <p style=""font-size:20px;"">Arrange each word to the drop box below based on how related they are to one another.</p> 
        <p style=""font-size:18px;"">A new word will appear after <strong>each word</strong> you move.</p>
        <p style=""font-size:17px;""> When you are finished arranging the space, click on the little Continue button at the bottom of the screen.</p>
        <div id=""word-drop-area"" style=""
          margin-top: 40px;        
          height: 400px;        
          border: 2px solid #aaa;        
          padding: 10px;       
          font-size: 20px;       
          text-align: center;       
          color: #888;   
          position: relative;   
          ""></div>
          <p style=""font-size:14px; color: gray;"">Remember, previously placed words can be rearranged if needed!</p>
          <style>       
            .draggable {         
            display: inline-block;         
            background: #eef;         
            padding: 10px;         
            border: 1px solid #aaa;         
            border-radius: 4px;         
            cursor: move;         
            font-size: 18px;         
            margin-bottom: 5px;       
          }     
        </style>    
      ","0","","21466","SpAM","music-genres","","","","","[{""word"":""pop"",""id"":""word-1"",""left"":""30px"",""top"":""30px""},{""word"":""pop"",""id"":""word-1"",""left"":""337px"",""top"":""196px""},{""word"":""rock"",""id"":""word-2"",""left"":""499px"",""top"":""191px""},{""word"":""indie"",""id"":""word-3"",""left"":""414px"",""top"":""117px""},{""word"":""metal"",""id"":""word-4"",""left"":""521px"",""top"":""257px""}]","","","","","","","","","",""
"","html-button-response","36","331382","0.0-36.0","10","1","2025-07-14 18:24:13","01a1fdd02c2d092b42551a60c16bc98f","139.140.216.106","Mozilla/5.0 (Macintosh; Intel Mac OS X 10_15_7) AppleWebKit/537.36 (KHTML, like Gecko) Chrome/138.0.0.0 Safari/537.36","Macintosh","Chrome","138.0.0.0","OS X","10_15_7","null","en-US,en;q=0.9","","840","
  <p style=""font-size:18px;""> <strong>You will now move to the next category.</strong></p>
  <p style=""font-size:16px;""> As a reminder, in this task, you will type as many words as you can </p> 
  <p style=""font-size:16px;""> think of that correspond to the category presented in capital letters.</p>
  <p style=""font-size:18px;""> Press <strong>Begin</strong> to start.</p>

  ","0","instructions","21466","","","","","","","","","","","","","","","","",""
"","html-keyboard-response","37","341384","0.0-37.0-0.0","10","1","2025-07-14 18:24:13","01a1fdd02c2d092b42551a60c16bc98f","139.140.216.106","Mozilla/5.0 (Macintosh; Intel Mac OS X 10_15_7) AppleWebKit/537.36 (KHTML, like Gecko) Chrome/138.0.0.0 Safari/537.36","Macintosh","Chrome","138.0.0.0","OS X","10_15_7","null","en-US,en;q=0.9","","null","
    <div id = ""timer-box""></div>
    <div id = ""response-input-box"">
      <p style = ""font-size:30px;"">Name as many items in a <strong>CLASSROOM</strong> as you can.</p>
      <div id = ""responses"">
        <input type = ""text"" class = ""classroom-items-response active"" autofocus />
      </div>
      <p id = ""below-input-text"" style = ""font-size: 14px; margin-top: 10px; color: gray; text-align: left;""> press <strong>enter</strong> after each word!</p>
    </div>
    <style>
      #responses {
      position: relative;
      width: 300px;
      height: 40px; 
      }

      .classroom-items-response {
        position: absolute;
        top: 0;
        left: 0;
        width: 100%;
        font-size: 20px;
        padding: 5px;
        box-sizing: border-box;
        opacity: 0.5;
      } 

      .classroom-items-response.active {
      opacity: 1;
      z-index: 999;
      }
    </style>
    ","null","","21466","VFT","classroom-items","[{""response"":""pencil"",""tag"":1},{""response"":""desk"",""tag"":2},{""response"":""computer"",""tag"":3},{""response"":""whiteboard"",""tag"":4}]","[2239.7,1491.5,2075.1,2218.6]","","","","","","","","","","","","",""
"","html-button-response","38","342745","0.0-38.0","10","1","2025-07-14 18:24:13","01a1fdd02c2d092b42551a60c16bc98f","139.140.216.106","Mozilla/5.0 (Macintosh; Intel Mac OS X 10_15_7) AppleWebKit/537.36 (KHTML, like Gecko) Chrome/138.0.0.0 Safari/537.36","Macintosh","Chrome","138.0.0.0","OS X","10_15_7","null","en-US,en;q=0.9","","1359","
  <p style=""font-size:20px;""> <strong>You are moving to the spatial arrangement task.</strong></p>
  <p style=""font-size:16px;""> As a reminder, in this task, you will be shown a set of words.</p>
  <p style=""font-size:16px;""> We need to know how similar you think these words are to one another.</p>
  <p style=""font-size:16px;""> To indicate your perception of similarity, you will move each word</p> 
  <p style=""font-size:16px;""> around so that the similar ones are proportionately closer together.</p>
  <p style=""font-size:16px;""> If the words seem similar, place them close together, if they seem</p>
  <p style=""font-size:16px;""> dissimilar, place them farther away from each other.</p>
  <p style=""font-size:10px;""> ‎</p>
  <p style=""font-size:18px;""> Press <strong>Begin</strong> to start.</p>

  ","0","instructions","21466","","","","","","","","","","","","","","","","",""
"","html-button-response","39","356190","0.0-39.0","10","1","2025-07-14 18:24:13","01a1fdd02c2d092b42551a60c16bc98f","139.140.216.106","Mozilla/5.0 (Macintosh; Intel Mac OS X 10_15_7) AppleWebKit/537.36 (KHTML, like Gecko) Chrome/138.0.0.0 Safari/537.36","Macintosh","Chrome","138.0.0.0","OS X","10_15_7","null","en-US,en;q=0.9","","13444","
        <p style=""font-size:20px;"">Arrange each word to the drop box below based on how related they are to one another.</p> 
        <p style=""font-size:18px;"">A new word will appear after <strong>each word</strong> you move.</p>
        <p style=""font-size:17px;""> When you are finished arranging the space, click on the little Continue button at the bottom of the screen.</p>
        <div id=""word-drop-area"" style=""
          margin-top: 40px;        
          height: 400px;        
          border: 2px solid #aaa;        
          padding: 10px;       
          font-size: 20px;       
          text-align: center;       
          color: #888;   
          position: relative;   
          ""></div>
          <p style=""font-size:14px; color: gray;"">Remember, previously placed words can be rearranged if needed!</p>
          <style>       
            .draggable {         
            display: inline-block;         
            background: #eef;         
            padding: 10px;         
            border: 1px solid #aaa;         
            border-radius: 4px;         
            cursor: move;         
            font-size: 18px;         
            margin-bottom: 5px;       
          }     
        </style>    
      ","0","","21466","SpAM","classroom-items","","","","","[{""word"":""pencil"",""id"":""word-1"",""left"":""200px"",""top"":""167px""},{""word"":""desk"",""id"":""word-2"",""left"":""208px"",""top"":""231px""},{""word"":""computer"",""id"":""word-3"",""left"":""281px"",""top"":""168px""},{""word"":""pencil"",""id"":""word-1"",""left"":""151px"",""top"":""169px""},{""word"":""computer"",""id"":""word-3"",""left"":""231px"",""top"":""169px""},{""word"":""whiteboard"",""id"":""word-4"",""left"":""437px"",""top"":""190px""}]","","","","","","","","","",""
"","instructions","40","361557","0.0-40.0-0.0","10","1","2025-07-14 18:24:13","01a1fdd02c2d092b42551a60c16bc98f","139.140.216.106","Mozilla/5.0 (Macintosh; Intel Mac OS X 10_15_7) AppleWebKit/537.36 (KHTML, like Gecko) Chrome/138.0.0.0 Safari/537.36","Macintosh","Chrome","138.0.0.0","OS X","10_15_7","null","en-US,en;q=0.9","","5365","","","","","","","","","","","","[{""page_index"":0,""viewing_time"":5365}]","","","","","","","","",""
"","survey-html-form","41","374338","0.0-40.0-1.0","10","1","2025-07-14 18:24:13","01a1fdd02c2d092b42551a60c16bc98f","139.140.216.106","Mozilla/5.0 (Macintosh; Intel Mac OS X 10_15_7) AppleWebKit/537.36 (KHTML, like Gecko) Chrome/138.0.0.0 Safari/537.36","Macintosh","Chrome","138.0.0.0","OS X","10_15_7","null","en-US,en;q=0.9","","12780","","{""gender"":""female"",""age"":""19"",""education"":""13""}","demographics","","","","","","","","","","19","female","13","","","","","",""
"","survey-multi-select","42","376500","0.0-40.0-2.0","10","1","2025-07-14 18:24:13","01a1fdd02c2d092b42551a60c16bc98f","139.140.216.106","Mozilla/5.0 (Macintosh; Intel Mac OS X 10_15_7) AppleWebKit/537.36 (KHTML, like Gecko) Chrome/138.0.0.0 Safari/537.36","Macintosh","Chrome","138.0.0.0","OS X","10_15_7","null","en-US,en;q=0.9","","2158","","{""race"":[""Asian"",""Black/African American""]}","demographics","","","","","","","","","","","","","[0]","multiracial","","","",""
"","survey-multi-choice","43","381358","0.0-40.0-3.0","10","1","2025-07-14 18:24:13","01a1fdd02c2d092b42551a60c16bc98f","139.140.216.106","Mozilla/5.0 (Macintosh; Intel Mac OS X 10_15_7) AppleWebKit/537.36 (KHTML, like Gecko) Chrome/138.0.0.0 Safari/537.36","Macintosh","Chrome","138.0.0.0","OS X","10_15_7","null","en-US,en;q=0.9","","4855","","{""hispanic"":""No"",""dominant_hand"":""Right"",""alert_time"":""Morning""}","demographics","","","","","","","","","","","","","[0,1,2]","","No","Right","Morning",""
"","html-button-response","44","382740","0.0-40.0-4.0","10","1","2025-07-14 18:24:13","01a1fdd02c2d092b42551a60c16bc98f","139.140.216.106","Mozilla/5.0 (Macintosh; Intel Mac OS X 10_15_7) AppleWebKit/537.36 (KHTML, like Gecko) Chrome/138.0.0.0 Safari/537.36","Macintosh","Chrome","138.0.0.0","OS X","10_15_7","null","en-US,en;q=0.9","","1381","Is English your first language?","0","demographics","","","","","","","","","","","","","","","","","","yes"
"","html-button-response","45","384211","0.0-41.0","10","1","2025-07-14 18:24:13","01a1fdd02c2d092b42551a60c16bc98f","139.140.216.106","Mozilla/5.0 (Macintosh; Intel Mac OS X 10_15_7) AppleWebKit/537.36 (KHTML, like Gecko) Chrome/138.0.0.0 Safari/537.36","Macintosh","Chrome","138.0.0.0","OS X","10_15_7","null","en-US,en;q=0.9","","1470","<p>You have completed the experiment. Thank you for participating! </p>
      <p> Please click <a href=""https://bit.ly/3t1aLGU"" target=""_blank"" rel=""noopener noreferrer"">here</a> to access the debriefing form and know more about our research.</p>
      <p> Please click the button below to finish the experiment and save your data.</p>
      <p> IMPORTANT: Please do not leave this page without clicking the button below.</p>
        ","0","","","","","","","","","","","","","","","","","","",""