value,trial_type,trial_index,time_elapsed,internal_node_id,run_id,condition,recorded_at,source_code_version,ip,user_agent,device,browser,browser_version,platform,platform_version,referer,accept_language,subject_id,rt,stimulus,response,typeoftrial,subject,compensation,compensation_name,compensation_email,task,domain,tagged_responses,response_times,droppedwords,ended_early,taggedResponses,view_history,age,gender,education,question_order,race,hispanic,dominant_hand,alert_time,english,first_language,age_learned_english
,call-function,0,0,0.0-0.0,24,1,2025-07-22 16:00:52,50f3844c39f4753b3167e5d328fb9c9b,64.223.128.100,"Mozilla/5.0 (Macintosh; Intel Mac OS X 10_15_7) AppleWebKit/537.36 (KHTML, like Gecko) Chrome/138.0.0.0 Safari/537.36",Macintosh,Chrome,138.0.0.0,OS X,10_15_7,null,"en-US,en;q=0.9",,,,,,,
,html-button-response,1,5188,0.0-1.0,24,1,2025-07-22 16:00:52,50f3844c39f4753b3167e5d328fb9c9b,64.223.128.100,"Mozilla/5.0 (Macintosh; Intel Mac OS X 10_15_7) AppleWebKit/537.36 (KHTML, like Gecko) Chrome/138.0.0.0 Safari/537.36",Macintosh,Chrome,138.0.0.0,OS X,10_15_7,null,"en-US,en;q=0.9",,5187,"
 <p style=""font-size:20px;""> Thank you for taking part in this experiment!</p>
 <p style=""font-size:20px;""> ‎</p>
 <p style=""font-size:18px;""> Before we walk you through the tasks you will be doing, we would like to get a sense of what</p>
 <p style=""font-size:18px;""> content you typically consume on the Reddit platform. On the preceeding page, we ask that you</p>
 <p style=""font-size:18px;""> input the names of the Subreddits you typically engage with in any capacity. (i.e. writing posts,</p>
 <p style=""font-size:18px;""> reading posts, upvoting, commenting, sharing, etc.) On the page following that, we ask that you input</p>
 <p style=""font-size:18px;""> your general interests, independent of specific Subreddits. To input a response, type it within the </p>
 <p style=""font-size:18px;""> provided box and <strong>press ENTER</strong> after every response. Keep in mind, there will be a three minute</p>
 <p style=""font-size:18px;""> time limit. However, if you feel you are done before time runs out, <strong>press continue</strong>. This data</p>
 <p style=""font-size:18px;""> is crucial to the experiment, so please be as accurate possible when typing your responses.</p>


 <p style=""font-size:20px;""> ‎</p>
 <p style=""font-size:18px;""> After you complete these tasks, you will be provided further instructions and continue to the actual experiment.</p>
 <p style=""font-size:18px;""> When you are ready to start, <strong>press Continue.</strong></p>


 ",0,instructions,69616,
,html-button-response,2,6129,0.0-2.0,24,1,2025-07-22 16:00:52,50f3844c39f4753b3167e5d328fb9c9b,64.223.128.100,"Mozilla/5.0 (Macintosh; Intel Mac OS X 10_15_7) AppleWebKit/537.36 (KHTML, like Gecko) Chrome/138.0.0.0 Safari/537.36",Macintosh,Chrome,138.0.0.0,OS X,10_15_7,null,"en-US,en;q=0.9",,940,"As a thank you for your participation, you may choose to enter a raffle for $(tbd..). Would you like to enter the raffle?",0,compensation,,yes
,html-button-response,3,8325,0.0-4.0,24,1,2025-07-22 16:00:52,50f3844c39f4753b3167e5d328fb9c9b,64.223.128.100,"Mozilla/5.0 (Macintosh; Intel Mac OS X 10_15_7) AppleWebKit/537.36 (KHTML, like Gecko) Chrome/138.0.0.0 Safari/537.36",Macintosh,Chrome,138.0.0.0,OS X,10_15_7,null,"en-US,en;q=0.9",,2195,"
      <p>You have completed the experiment. Thank you for participating! </p>
      <p> Please click <a href=""https://bit.ly/3t1aLGU"" target=""_blank"" rel=""noopener noreferrer"">here</a> to access the debriefing form and know more about our research.</p>
      <p> Please click the button below to finish the experiment and save your data.</p>
      <p> IMPORTANT: Please do not leave this page without clicking the button below.</p>
        ",0,end,,
,call-function,0,0,0.0-0.0,27,1,2025-07-22 16:06:51,3f7f12eb254913b974287d54a14d4458,64.223.128.100,"Mozilla/5.0 (Macintosh; Intel Mac OS X 10_15_7) AppleWebKit/537.36 (KHTML, like Gecko) Chrome/138.0.0.0 Safari/537.36",Macintosh,Chrome,138.0.0.0,OS X,10_15_7,null,"en-US,en;q=0.9",,,,,,,
,html-button-response,1,2560,0.0-1.0,27,1,2025-07-22 16:06:51,3f7f12eb254913b974287d54a14d4458,64.223.128.100,"Mozilla/5.0 (Macintosh; Intel Mac OS X 10_15_7) AppleWebKit/537.36 (KHTML, like Gecko) Chrome/138.0.0.0 Safari/537.36",Macintosh,Chrome,138.0.0.0,OS X,10_15_7,null,"en-US,en;q=0.9",,2558,"
 <p style=""font-size:20px;""> Thank you for taking part in this experiment!</p>
 <p style=""font-size:20px;""> ‎</p>
 <p style=""font-size:18px;""> Before we walk you through the tasks you will be doing, we would like to get a sense of what</p>
 <p style=""font-size:18px;""> content you typically consume on the Reddit platform. On the preceeding page, we ask that you</p>
 <p style=""font-size:18px;""> input the names of the Subreddits you typically engage with in any capacity. (i.e. writing posts,</p>
 <p style=""font-size:18px;""> reading posts, upvoting, commenting, sharing, etc.) On the page following that, we ask that you input</p>
 <p style=""font-size:18px;""> your general interests, independent of specific Subreddits. To input a response, type it within the </p>
 <p style=""font-size:18px;""> provided box and <strong>press ENTER</strong> after every response. Keep in mind, there will be a three minute</p>
 <p style=""font-size:18px;""> time limit. However, if you feel you are done before time runs out, <strong>press continue</strong>. This data</p>
 <p style=""font-size:18px;""> is crucial to the experiment, so please be as accurate possible when typing your responses.</p>


 <p style=""font-size:20px;""> ‎</p>
 <p style=""font-size:18px;""> After you complete these tasks, you will be provided further instructions and continue to the actual experiment.</p>
 <p style=""font-size:18px;""> When you are ready to start, <strong>press Continue.</strong></p>


 ",0,instructions,25449,
,html-button-response,2,3971,0.0-2.0,27,1,2025-07-22 16:06:51,3f7f12eb254913b974287d54a14d4458,64.223.128.100,"Mozilla/5.0 (Macintosh; Intel Mac OS X 10_15_7) AppleWebKit/537.36 (KHTML, like Gecko) Chrome/138.0.0.0 Safari/537.36",Macintosh,Chrome,138.0.0.0,OS X,10_15_7,null,"en-US,en;q=0.9",,1410,"As a thank you for your participation, you may choose to enter a raffle for $(tbd..). Would you like to enter the raffle?",0,compensation,,yes
,survey-html-form,3,7182,0.0-3.0-0.0,27,1,2025-07-22 16:06:51,3f7f12eb254913b974287d54a14d4458,64.223.128.100,"Mozilla/5.0 (Macintosh; Intel Mac OS X 10_15_7) AppleWebKit/537.36 (KHTML, like Gecko) Chrome/138.0.0.0 Safari/537.36",Macintosh,Chrome,138.0.0.0,OS X,10_15_7,null,"en-US,en;q=0.9",,3209,,"{""compensation_name"":""kjb"",""compensation_email"":""jhb""}",follow_up_demographics,,
,html-button-response,4,9259,0.0-4.0,27,1,2025-07-22 16:06:51,3f7f12eb254913b974287d54a14d4458,64.223.128.100,"Mozilla/5.0 (Macintosh; Intel Mac OS X 10_15_7) AppleWebKit/537.36 (KHTML, like Gecko) Chrome/138.0.0.0 Safari/537.36",Macintosh,Chrome,138.0.0.0,OS X,10_15_7,null,"en-US,en;q=0.9",,2076,"
      <p>You have completed the experiment. Thank you for participating! </p>
      <p> Please click <a href=""https://bit.ly/3t1aLGU"" target=""_blank"" rel=""noopener noreferrer"">here</a> to access the debriefing form and know more about our research.</p>
      <p> Please click the button below to finish the experiment and save your data.</p>
      <p> IMPORTANT: Please do not leave this page without clicking the button below.</p>
        ",0,end,,
,call-function,0,0,0.0-0.0,31,1,2025-07-22 16:14:58,155b20fc6bea4355b5fc1eb5a09cc7fd,64.223.128.100,"Mozilla/5.0 (Macintosh; Intel Mac OS X 10_15_7) AppleWebKit/537.36 (KHTML, like Gecko) Chrome/138.0.0.0 Safari/537.36",Macintosh,Chrome,138.0.0.0,OS X,10_15_7,null,"en-US,en;q=0.9",,,,,,,,,
,html-button-response,1,1097,0.0-1.0,31,1,2025-07-22 16:14:58,155b20fc6bea4355b5fc1eb5a09cc7fd,64.223.128.100,"Mozilla/5.0 (Macintosh; Intel Mac OS X 10_15_7) AppleWebKit/537.36 (KHTML, like Gecko) Chrome/138.0.0.0 Safari/537.36",Macintosh,Chrome,138.0.0.0,OS X,10_15_7,null,"en-US,en;q=0.9",,1096,"
 <p style=""font-size:20px;""> Thank you for taking part in this experiment!</p>
 <p style=""font-size:20px;""> ‎</p>
 <p style=""font-size:18px;""> Before we walk you through the tasks you will be doing, we would like to get a sense of what</p>
 <p style=""font-size:18px;""> content you typically consume on the Reddit platform. On the preceeding page, we ask that you</p>
 <p style=""font-size:18px;""> input the names of the Subreddits you typically engage with in any capacity. (i.e. writing posts,</p>
 <p style=""font-size:18px;""> reading posts, upvoting, commenting, sharing, etc.) On the page following that, we ask that you input</p>
 <p style=""font-size:18px;""> your general interests, independent of specific Subreddits. To input a response, type it within the </p>
 <p style=""font-size:18px;""> provided box and <strong>press ENTER</strong> after every response. Keep in mind, there will be a three minute</p>
 <p style=""font-size:18px;""> time limit. However, if you feel you are done before time runs out, <strong>press continue</strong>. This data</p>
 <p style=""font-size:18px;""> is crucial to the experiment, so please be as accurate possible when typing your responses.</p>


 <p style=""font-size:20px;""> ‎</p>
 <p style=""font-size:18px;""> After you complete these tasks, you will be provided further instructions and continue to the actual experiment.</p>
 <p style=""font-size:18px;""> When you are ready to start, <strong>press Continue.</strong></p>


 ",0,instructions,19199,,,
,html-button-response,2,2084,0.0-2.0,31,1,2025-07-22 16:14:58,155b20fc6bea4355b5fc1eb5a09cc7fd,64.223.128.100,"Mozilla/5.0 (Macintosh; Intel Mac OS X 10_15_7) AppleWebKit/537.36 (KHTML, like Gecko) Chrome/138.0.0.0 Safari/537.36",Macintosh,Chrome,138.0.0.0,OS X,10_15_7,null,"en-US,en;q=0.9",,986,"As a thank you for your participation, you may choose to enter a raffle for $(tbd..). Would you like to enter the raffle?",0,compensation,,yes,,
,survey-html-form,3,4364,0.0-3.0-0.0,31,1,2025-07-22 16:14:58,155b20fc6bea4355b5fc1eb5a09cc7fd,64.223.128.100,"Mozilla/5.0 (Macintosh; Intel Mac OS X 10_15_7) AppleWebKit/537.36 (KHTML, like Gecko) Chrome/138.0.0.0 Safari/537.36",Macintosh,Chrome,138.0.0.0,OS X,10_15_7,null,"en-US,en;q=0.9",,2277,,"{""compensation_name"":""xfgj"",""compensation_email"":""dfj""}",follow_up_demographics,,,xfgj,dfj
,html-button-response,4,6467,0.0-4.0,31,1,2025-07-22 16:14:58,155b20fc6bea4355b5fc1eb5a09cc7fd,64.223.128.100,"Mozilla/5.0 (Macintosh; Intel Mac OS X 10_15_7) AppleWebKit/537.36 (KHTML, like Gecko) Chrome/138.0.0.0 Safari/537.36",Macintosh,Chrome,138.0.0.0,OS X,10_15_7,null,"en-US,en;q=0.9",,2102,"
      <p>You have completed the experiment. Thank you for participating! </p>
      <p> Please click <a href=""https://bit.ly/3t1aLGU"" target=""_blank"" rel=""noopener noreferrer"">here</a> to access the debriefing form and know more about our research.</p>
      <p> Please click the button below to finish the experiment and save your data.</p>
      <p> IMPORTANT: Please do not leave this page without clicking the button below.</p>
        ",0,end,,,,
,call-function,0,0,0.0-0.0,2,1,2025-07-08 20:51:55,348af30701339f9bbd7c58c3ad0c4853,139.140.216.106,"Mozilla/5.0 (Macintosh; Intel Mac OS X 10_15_7) AppleWebKit/537.36 (KHTML, like Gecko) Chrome/138.0.0.0 Safari/537.36",Macintosh,Chrome,138.0.0.0,OS X,10_15_7,null,"en-US,en;q=0.9",,,,,,,,,,,,,,
,html-button-response,1,922,0.0-1.0,2,1,2025-07-08 20:51:55,348af30701339f9bbd7c58c3ad0c4853,139.140.216.106,"Mozilla/5.0 (Macintosh; Intel Mac OS X 10_15_7) AppleWebKit/537.36 (KHTML, like Gecko) Chrome/138.0.0.0 Safari/537.36",Macintosh,Chrome,138.0.0.0,OS X,10_15_7,null,"en-US,en;q=0.9",,921,"
  <p style=""font-size:20px;""> Thank you for taking part in this experiment!</p>
  <p style=""font-size:20px;""> ‎</p>
  <p style=""font-size:22px;""> <strong>This experiment has two tasks:</strong></p>
  <p style=""font-size:18px;""> <u>In the first task</u>, you will be presented the name of a category and must type 
  <p style=""font-size:18px;""> in as many items that correspond to that category as you can within the time limit. </p>
  <p style=""font-size:18px;""> <u>In the second task</u>, you will move each of the words that you typed in the first </p>
  <p style=""font-size:18px;""> task around so that the similar ones are proportionately closer together.</p>
  <p style=""font-size:18px;""> The experiment will consist of only 3 ""trials,"" so please be as accurate/precise as 
  <p style=""font-size:18px;""> possible when typing in items and placing the objects, rather than trying to speed through.</p>
  <p style=""font-size:20px;""> ‎</p>
  <p style=""font-size:18px;""> Before you get started, we just want to get you familiar with the experiment layout. We'll walk you </p>
  <p style=""font-size:18px;""> through a practice verbal fluency and spatial arrangement task and provide more detailed instructions.</p>


  <p style=""font-size:18px;""> When you are ready to start, <strong>press Continue.</strong></p>

  ",0,instructions,34998,,,,,,,,
,html-button-response,2,1642,0.0-2.0,2,1,2025-07-08 20:51:55,348af30701339f9bbd7c58c3ad0c4853,139.140.216.106,"Mozilla/5.0 (Macintosh; Intel Mac OS X 10_15_7) AppleWebKit/537.36 (KHTML, like Gecko) Chrome/138.0.0.0 Safari/537.36",Macintosh,Chrome,138.0.0.0,OS X,10_15_7,null,"en-US,en;q=0.9",,715,"
  <p style=""font-size:22px;""><strong>You are about to perform a verbal fluency task.</strong></p>
  <p style=""font-size:17px;""> In this task, you will be presented the name of a category (e.g., FURNITURE) in capital</p>
  <p style=""font-size:17px;""> letters. Your job is to type in as many items as you can think of that correspond to that</p>
  <p style=""font-size:17px;""> category in 3 minutes. You will be doing this three times on three separate domains.</p> 

  <video width = ""600"" height = ""300"" autoplay muted loop style = ""margin-top: 10px;"">
    <source src = ""VFTTutorial.mp4"" type = ""video/mp4"">
  </video>

  <p style=""font-size:17px;""> After you type in each word, press <strong>ENTER</strong> to type in the next </p>
  <p style=""font-size:17px;""> word. When the timer runs out, you will automatically proceed to the next task.</p>

  <p style=""font-size:17px;""> When you're ready, <strong>press begin</strong> to practice!</p>




  ",0,instructions,34998,,,,,,,,
,html-keyboard-response,3,181646,0.0-3.0-0.0,2,1,2025-07-08 20:51:55,348af30701339f9bbd7c58c3ad0c4853,139.140.216.106,"Mozilla/5.0 (Macintosh; Intel Mac OS X 10_15_7) AppleWebKit/537.36 (KHTML, like Gecko) Chrome/138.0.0.0 Safari/537.36",Macintosh,Chrome,138.0.0.0,OS X,10_15_7,null,"en-US,en;q=0.9",,null,"
    <div id = ""timer-box""></div>
    <div id = ""response-input-box"">
      <p style = ""font-size:30px;"">Name as many items of <strong>FURNITURE</strong> as you can.</p>
      <div id = ""responses"">
        <input type = ""text"" class = ""furniture-practice-response active"" autofocus />
      </div>
      <p id = ""below-input-text"" style = ""font-size: 14px; margin-top: 10px; color: gray; text-align: left;""> press <strong>enter</strong> after each word!</p>
    </div>
    <style>
      #responses {
      position: relative;
      width: 300px;
      height: 40px; 
      }

      .furniture-practice-response {
        position: absolute;
        top: 0;
        left: 0;
        width: 100%;
        font-size: 20px;
        padding: 5px;
        box-sizing: border-box;
        opacity: 0.5;
      } 

      .furniture-practice-response.active {
      opacity: 1;
      z-index: 999;
      }
    </style>
    ",null,,34998,,,,VFT,furniture-practice,"[{""response"":""chair"",""tag"":1},{""response"":""bed"",""tag"":2},{""response"":""couch"",""tag"":3},{""response"":""bench"",""tag"":4}]","[2826.9,1656.6,1800.1,96719]",
,html-button-response,4,217632,0.0-4.0,2,1,2025-07-08 20:51:55,348af30701339f9bbd7c58c3ad0c4853,139.140.216.106,"Mozilla/5.0 (Macintosh; Intel Mac OS X 10_15_7) AppleWebKit/537.36 (KHTML, like Gecko) Chrome/138.0.0.0 Safari/537.36",Macintosh,Chrome,138.0.0.0,OS X,10_15_7,null,"en-US,en;q=0.9",,35980,"
  <p style=""font-size:22px;""> <strong>Now, you will begin a spatial arrangement task.</strong></p>
  <p style=""font-size:17px;""> In this task, you will be shown the set of words you typed in the last verbal fluency task you performed.</p>
  <p style=""font-size:17px;""> We need to know how similar you think these words are to one another. Your job is to move each word</p>
  <p style=""font-size:17px;""> around so that the similar words are proportionately closer together. That is, you should move them into</p>
  <p style=""font-size:17px;""> space such that the distance between each pair of items represents how similar you think the pair is.</p>
  <p style=""font-size:17px;""> (with closer in space meaning more similar, and farther away in space meaning more dissimilar)</p>

  <video width = ""600"" height = ""400"" autoplay muted loop style = ""margin-top: 10px;"">
    <source src = ""SpAMTutorial.mp4"" type = ""video/mp4"">
  </video>

  <p style=""font-size:17px;""> The words will appear one by one in the top left corner of a box. You can move the words by simply</p>
  <p style=""font-size:17px;""> click/dragging them. If the words seem similar, place them close together, if they seem dissimilar,</p>
  <p style=""font-size:17px;""> place them farther away from each other. You will be doing this three times on three separate domains,</p> 
  <p style=""font-size:17px;""> with a different set of words each time, based the words you typed in the corresponding verbal fluency </p>
  <p style=""font-size:17px;""> task. After dragging each word, the next word will appear. You may rearrange previously placed items.</p>
  <p style=""font-size:17px;""> Note, to complete the trial, <u>all items</u> must be moved into the ""active arena,"" the large central box. </p>
  <p style=""font-size:17px;""> When you are finished arranging the space, click on the little Continue button at the bottom of the screen.</p>
  
    <p style=""font-size:5px;""> ‎</p>

  <p style=""font-size:17px;""> Let's continue with our practice round!</p>
  <p style=""font-size:17px;""> When you're ready, <strong>press begin.</strong></p>

  ",0,instructions,34998,,,,,,,,
,html-button-response,5,229209,0.0-5.0,2,1,2025-07-08 20:51:55,348af30701339f9bbd7c58c3ad0c4853,139.140.216.106,"Mozilla/5.0 (Macintosh; Intel Mac OS X 10_15_7) AppleWebKit/537.36 (KHTML, like Gecko) Chrome/138.0.0.0 Safari/537.36",Macintosh,Chrome,138.0.0.0,OS X,10_15_7,null,"en-US,en;q=0.9",,11575,"
        <p style=""font-size:20px;"">Arrange each word to the drop box below based on how related they are to one another.</p> 
        <p style=""font-size:18px;"">A new word will appear after <strong>each word</strong> you move.</p>
        <p style=""font-size:17px;""> When you are finished arranging the space, click on the little Continue button at the bottom of the screen.</p>
        <div id=""word-drop-area"" style=""
          margin-top: 40px;        
          height: 400px;        
          border: 2px solid #aaa;        
          padding: 10px;       
          font-size: 20px;       
          text-align: center;       
          color: #888;   
          position: relative;   
          ""></div>
          <p style=""font-size:14px; color: gray;"">Remember, previously placed words can be rearranged if needed!</p>
          <style>       
            .draggable {         
            display: inline-block;         
            background: #eef;         
            padding: 10px;         
            border: 1px solid #aaa;         
            border-radius: 4px;         
            cursor: move;         
            font-size: 18px;         
            margin-bottom: 5px;       
          }     
        </style>    
      ",0,,34998,,,,SpAM,furniture-practice,,,"[{""word"":""chair"",""id"":""word-1"",""left"":""540px"",""top"":""191px""},{""word"":""bed"",""id"":""word-2"",""left"":""393px"",""top"":""86px""},{""word"":""couch"",""id"":""word-3"",""left"":""427px"",""top"":""189px""},{""word"":""bench"",""id"":""word-4"",""left"":""490px"",""top"":""269px""}]"
,html-button-response,6,230623,0.0-6.0,2,1,2025-07-08 20:51:55,348af30701339f9bbd7c58c3ad0c4853,139.140.216.106,"Mozilla/5.0 (Macintosh; Intel Mac OS X 10_15_7) AppleWebKit/537.36 (KHTML, like Gecko) Chrome/138.0.0.0 Safari/537.36",Macintosh,Chrome,138.0.0.0,OS X,10_15_7,null,"en-US,en;q=0.9",,1412,"
  <p style=""font-size:20px;"">You have completed the practice round!</p>
  <p style=""font-size:18x;""> Now, you will begin the actual task, consisting of three rounds with different categories.</p>
  <p style=""font-size:18x;""> Again, your first task is to first type in as many items as you can think of that correspond to the given category</p>
  <p style=""font-size:18x;""> within the time limit. Then, you will arrange the items you input previously in the box provided based on how related they are.</p>

  <p style=""font-size:10px;""> ‎</p>
  <p style=""font-size:18px;""> When you're ready, <strong>press begin</strong> to start the verbal fluency task.</p>

  ",0,instructions,34998,,,,,,,,
,html-keyboard-response,7,410626,0.0-7.0-0.0,2,1,2025-07-08 20:51:55,348af30701339f9bbd7c58c3ad0c4853,139.140.216.106,"Mozilla/5.0 (Macintosh; Intel Mac OS X 10_15_7) AppleWebKit/537.36 (KHTML, like Gecko) Chrome/138.0.0.0 Safari/537.36",Macintosh,Chrome,138.0.0.0,OS X,10_15_7,null,"en-US,en;q=0.9",,null,"
    <div id = ""timer-box""></div>
    <div id = ""response-input-box"">
      <p style = ""font-size:30px;"">Name as many ANIMALS as you can.</p>
      <div id = ""responses"">
        <input type = ""text"" class = ""animal-response active"" autofocus />
      </div>
      <p id = ""below-input-text"" style = ""font-size: 14px; margin-top: 10px; color: gray; text-align: left;""> press <strong>enter</strong> after each word!</p>
    </div>
    <style>
      #responses {
      position: relative;
      width: 300px;
      height: 40px; 
      }

      .animal-response {
        position: absolute;
        top: 0;
        left: 0;
        width: 100%;
        font-size: 20px;
        padding: 5px;
        box-sizing: border-box;
        opacity: 0.5;
      } 

      .animal-response.active {
      opacity: 1;
      z-index: 999;
      }
    </style>
    ",null,,34998,,,,VFT,animal,"[{""response"":""cat"",""tag"":1},{""response"":""wolf"",""tag"":2},{""response"":""panda"",""tag"":3},{""response"":""otter"",""tag"":4},{""response"":""tiger"",""tag"":5}]","[2530.2,1626,2132.4,1843.6,1223]",
,html-button-response,8,425178,0.0-8.0,2,1,2025-07-08 20:51:55,348af30701339f9bbd7c58c3ad0c4853,139.140.216.106,"Mozilla/5.0 (Macintosh; Intel Mac OS X 10_15_7) AppleWebKit/537.36 (KHTML, like Gecko) Chrome/138.0.0.0 Safari/537.36",Macintosh,Chrome,138.0.0.0,OS X,10_15_7,null,"en-US,en;q=0.9",,14549,"
  <p style=""font-size:20px;""> <strong>You are moving to the spatial arrangement task.</strong></p>
  <p style=""font-size:16px;""> As a reminder, in this task, you will be shown a set of words.</p>
  <p style=""font-size:16px;""> We need to know how similar you think these words are to one another.</p>
  <p style=""font-size:16px;""> To indicate your perception of similarity, you will move each word</p> 
  <p style=""font-size:16px;""> around so that the similar ones are proportionately closer together.</p>
  <p style=""font-size:16px;""> If the words seem similar, place them close together, if they seem</p>
  <p style=""font-size:16px;""> dissimilar, place them farther away from each other.</p>
  <p style=""font-size:10px;""> ‎</p>
  <p style=""font-size:18px;""> Press begin to start.</p>

  ",0,instructions,34998,,,,,,,,
,html-button-response,9,440010,0.0-9.0,2,1,2025-07-08 20:51:55,348af30701339f9bbd7c58c3ad0c4853,139.140.216.106,"Mozilla/5.0 (Macintosh; Intel Mac OS X 10_15_7) AppleWebKit/537.36 (KHTML, like Gecko) Chrome/138.0.0.0 Safari/537.36",Macintosh,Chrome,138.0.0.0,OS X,10_15_7,null,"en-US,en;q=0.9",,14831,"
        <p style=""font-size:20px;"">Arrange each word to the drop box below based on how related they are to one another.</p> 
        <p style=""font-size:18px;"">A new word will appear after <strong>each word</strong> you move.</p>
        <p style=""font-size:17px;""> When you are finished arranging the space, click on the little Continue button at the bottom of the screen.</p>
        <div id=""word-drop-area"" style=""
          margin-top: 40px;        
          height: 400px;        
          border: 2px solid #aaa;        
          padding: 10px;       
          font-size: 20px;       
          text-align: center;       
          color: #888;   
          position: relative;   
          ""></div>
          <p style=""font-size:14px; color: gray;"">Remember, previously placed words can be rearranged if needed!</p>
          <style>       
            .draggable {         
            display: inline-block;         
            background: #eef;         
            padding: 10px;         
            border: 1px solid #aaa;         
            border-radius: 4px;         
            cursor: move;         
            font-size: 18px;         
            margin-bottom: 5px;       
          }     
        </style>    
      ",0,,34998,,,,SpAM,animal,,,"[{""word"":""cat"",""id"":""word-1"",""left"":""380px"",""top"":""160px""},{""word"":""wolf"",""id"":""word-2"",""left"":""154px"",""top"":""156px""},{""word"":""panda"",""id"":""word-3"",""left"":""619px"",""top"":""312px""},{""word"":""otter"",""id"":""word-4"",""left"":""336px"",""top"":""327px""},{""word"":""tiger"",""id"":""word-5"",""left"":""410px"",""top"":""221px""}]"
,html-button-response,10,503183,0.0-10.0,2,1,2025-07-08 20:51:55,348af30701339f9bbd7c58c3ad0c4853,139.140.216.106,"Mozilla/5.0 (Macintosh; Intel Mac OS X 10_15_7) AppleWebKit/537.36 (KHTML, like Gecko) Chrome/138.0.0.0 Safari/537.36",Macintosh,Chrome,138.0.0.0,OS X,10_15_7,null,"en-US,en;q=0.9",,63171,"
  <p style=""font-size:18px;""> <strong>You will now move to the next category.</strong></p>
  <p style=""font-size:16px;""> As a reminder, in this task, you will type as many words as you can </p> 
  <p style=""font-size:16px;""> think of that correspond to the category presented in capital letters.</p>
  <p style=""font-size:18px;""> Press begin to start.</p>

  ",0,instructions,34998,,,,,,,,
,html-keyboard-response,11,683190,0.0-11.0-0.0,2,1,2025-07-08 20:51:55,348af30701339f9bbd7c58c3ad0c4853,139.140.216.106,"Mozilla/5.0 (Macintosh; Intel Mac OS X 10_15_7) AppleWebKit/537.36 (KHTML, like Gecko) Chrome/138.0.0.0 Safari/537.36",Macintosh,Chrome,138.0.0.0,OS X,10_15_7,null,"en-US,en;q=0.9",,null,"
    <div id = ""timer-box""></div>
    <div id = ""response-input-box"">
      <p style = ""font-size:30px;"">Name as many FOODS as you can.</p>
      <div id = ""responses"">
        <input type = ""text"" class = ""food-response active"" autofocus />
      </div>
      <p id = ""below-input-text"" style = ""font-size: 14px; margin-top: 10px; color: gray; text-align: left;""> press <strong>enter</strong> after each word!</p>
    </div>
    <style>
      #responses {
      position: relative;
      width: 300px;
      height: 40px; 
      }

      .food-response {
        position: absolute;
        top: 0;
        left: 0;
        width: 100%;
        font-size: 20px;
        padding: 5px;
        box-sizing: border-box;
        opacity: 0.5;
      } 

      .food-response.active {
      opacity: 1;
      z-index: 999;
      }
    </style>
    ",null,,34998,,,,VFT,food,"[{""response"":""vread"",""tag"":1},{""response"":""cake"",""tag"":2},{""response"":""tofu"",""tag"":3},{""response"":""apple"",""tag"":4},{""response"":""cherry"",""tag"":5}]","[5386.9,4201,2714.8,8095.6,2644.1]",
,html-button-response,12,693529,0.0-12.0,2,1,2025-07-08 20:51:55,348af30701339f9bbd7c58c3ad0c4853,139.140.216.106,"Mozilla/5.0 (Macintosh; Intel Mac OS X 10_15_7) AppleWebKit/537.36 (KHTML, like Gecko) Chrome/138.0.0.0 Safari/537.36",Macintosh,Chrome,138.0.0.0,OS X,10_15_7,null,"en-US,en;q=0.9",,10336,"
  <p style=""font-size:20px;""> <strong>You are moving to the spatial arrangement task.</strong></p>
  <p style=""font-size:16px;""> As a reminder, in this task, you will be shown a set of words.</p>
  <p style=""font-size:16px;""> We need to know how similar you think these words are to one another.</p>
  <p style=""font-size:16px;""> To indicate your perception of similarity, you will move each word</p> 
  <p style=""font-size:16px;""> around so that the similar ones are proportionately closer together.</p>
  <p style=""font-size:16px;""> If the words seem similar, place them close together, if they seem</p>
  <p style=""font-size:16px;""> dissimilar, place them farther away from each other.</p>
  <p style=""font-size:10px;""> ‎</p>
  <p style=""font-size:18px;""> Press begin to start.</p>

  ",0,instructions,34998,,,,,,,,
,html-button-response,13,706880,0.0-13.0,2,1,2025-07-08 20:51:55,348af30701339f9bbd7c58c3ad0c4853,139.140.216.106,"Mozilla/5.0 (Macintosh; Intel Mac OS X 10_15_7) AppleWebKit/537.36 (KHTML, like Gecko) Chrome/138.0.0.0 Safari/537.36",Macintosh,Chrome,138.0.0.0,OS X,10_15_7,null,"en-US,en;q=0.9",,13349,"
        <p style=""font-size:20px;"">Arrange each word to the drop box below based on how related they are to one another.</p> 
        <p style=""font-size:18px;"">A new word will appear after <strong>each word</strong> you move.</p>
        <p style=""font-size:17px;""> When you are finished arranging the space, click on the little Continue button at the bottom of the screen.</p>
        <div id=""word-drop-area"" style=""
          margin-top: 40px;        
          height: 400px;        
          border: 2px solid #aaa;        
          padding: 10px;       
          font-size: 20px;       
          text-align: center;       
          color: #888;   
          position: relative;   
          ""></div>
          <p style=""font-size:14px; color: gray;"">Remember, previously placed words can be rearranged if needed!</p>
          <style>       
            .draggable {         
            display: inline-block;         
            background: #eef;         
            padding: 10px;         
            border: 1px solid #aaa;         
            border-radius: 4px;         
            cursor: move;         
            font-size: 18px;         
            margin-bottom: 5px;       
          }     
        </style>    
      ",0,,34998,,,,SpAM,food,,,"[{""word"":""vread"",""id"":""word-1"",""left"":""499px"",""top"":""241px""},{""word"":""cake"",""id"":""word-2"",""left"":""418px"",""top"":""249px""},{""word"":""tofu"",""id"":""word-3"",""left"":""403px"",""top"":""120px""},{""word"":""apple"",""id"":""word-4"",""left"":""178px"",""top"":""224px""},{""word"":""cherry"",""id"":""word-5"",""left"":""182px"",""top"":""144px""}]"
,html-button-response,14,708200,0.0-14.0,2,1,2025-07-08 20:51:55,348af30701339f9bbd7c58c3ad0c4853,139.140.216.106,"Mozilla/5.0 (Macintosh; Intel Mac OS X 10_15_7) AppleWebKit/537.36 (KHTML, like Gecko) Chrome/138.0.0.0 Safari/537.36",Macintosh,Chrome,138.0.0.0,OS X,10_15_7,null,"en-US,en;q=0.9",,1318,"<p>You have completed the experiment. Thank you for participating! </p>
      <p> Please click <a href=""https://bit.ly/3t1aLGU"" target=""_blank"" rel=""noopener noreferrer"">here</a> to access the debriefing form and know more about our research.</p>
      <p> Please click the button below to finish the experiment and save your data.</p>
      <p> IMPORTANT: Please do not leave this page without clicking the button below.</p>
        ",0,,,,,,,,,,
,call-function,0,1,0.0-0.0,3,1,2025-07-09 13:55:36,348af30701339f9bbd7c58c3ad0c4853,139.140.223.237,"Mozilla/5.0 (Macintosh; Intel Mac OS X 10_15_7) AppleWebKit/537.36 (KHTML, like Gecko) Chrome/138.0.0.0 Safari/537.36",Macintosh,Chrome,138.0.0.0,OS X,10_15_7,null,"en-US,en;q=0.9",,,,,,,,,,,,,,
,html-button-response,1,404029,0.0-1.0,3,1,2025-07-09 13:55:36,348af30701339f9bbd7c58c3ad0c4853,139.140.223.237,"Mozilla/5.0 (Macintosh; Intel Mac OS X 10_15_7) AppleWebKit/537.36 (KHTML, like Gecko) Chrome/138.0.0.0 Safari/537.36",Macintosh,Chrome,138.0.0.0,OS X,10_15_7,null,"en-US,en;q=0.9",,404027,"
  <p style=""font-size:20px;""> Thank you for taking part in this experiment!</p>
  <p style=""font-size:20px;""> ‎</p>
  <p style=""font-size:22px;""> <strong>This experiment has two tasks:</strong></p>
  <p style=""font-size:18px;""> <u>In the first task</u>, you will be presented the name of a category and must type 
  <p style=""font-size:18px;""> in as many items that correspond to that category as you can within the time limit. </p>
  <p style=""font-size:18px;""> <u>In the second task</u>, you will move each of the words that you typed in the first </p>
  <p style=""font-size:18px;""> task around so that the similar ones are proportionately closer together.</p>
  <p style=""font-size:18px;""> The experiment will consist of only 3 ""trials,"" so please be as accurate/precise as 
  <p style=""font-size:18px;""> possible when typing in items and placing the objects, rather than trying to speed through.</p>
  <p style=""font-size:20px;""> ‎</p>
  <p style=""font-size:18px;""> Before you get started, we just want to get you familiar with the experiment layout. We'll walk you </p>
  <p style=""font-size:18px;""> through a practice verbal fluency and spatial arrangement task and provide more detailed instructions.</p>


  <p style=""font-size:18px;""> When you are ready to start, <strong>press Continue.</strong></p>

  ",0,instructions,11859,,,,,,,,
,html-button-response,2,434129,0.0-2.0,3,1,2025-07-09 13:55:36,348af30701339f9bbd7c58c3ad0c4853,139.140.223.237,"Mozilla/5.0 (Macintosh; Intel Mac OS X 10_15_7) AppleWebKit/537.36 (KHTML, like Gecko) Chrome/138.0.0.0 Safari/537.36",Macintosh,Chrome,138.0.0.0,OS X,10_15_7,null,"en-US,en;q=0.9",,30093,"
  <p style=""font-size:22px;""><strong>You are about to perform a verbal fluency task.</strong></p>
  <p style=""font-size:17px;""> In this task, you will be presented the name of a category (e.g., FURNITURE) in capital</p>
  <p style=""font-size:17px;""> letters. Your job is to type in as many items as you can think of that correspond to that</p>
  <p style=""font-size:17px;""> category in 3 minutes. You will be doing this three times on three separate domains.</p> 

  <video width = ""600"" height = ""300"" autoplay muted loop style = ""margin-top: 10px;"">
    <source src = ""VFTTutorial.mp4"" type = ""video/mp4"">
  </video>

  <p style=""font-size:17px;""> After you type in each word, press <strong>ENTER</strong> to type in the next </p>
  <p style=""font-size:17px;""> word. When the timer runs out, you will automatically proceed to the next task.</p>

  <p style=""font-size:17px;""> When you're ready, <strong>press begin</strong> to practice!</p>




  ",0,instructions,11859,,,,,,,,
,html-keyboard-response,3,614133,0.0-3.0-0.0,3,1,2025-07-09 13:55:36,348af30701339f9bbd7c58c3ad0c4853,139.140.223.237,"Mozilla/5.0 (Macintosh; Intel Mac OS X 10_15_7) AppleWebKit/537.36 (KHTML, like Gecko) Chrome/138.0.0.0 Safari/537.36",Macintosh,Chrome,138.0.0.0,OS X,10_15_7,null,"en-US,en;q=0.9",,null,"
    <div id = ""timer-box""></div>
    <div id = ""response-input-box"">
      <p style = ""font-size:30px;"">Name as many items of <strong>FURNITURE</strong> as you can.</p>
      <div id = ""responses"">
        <input type = ""text"" class = ""furniture-practice-response active"" autofocus />
      </div>
      <p id = ""below-input-text"" style = ""font-size: 14px; margin-top: 10px; color: gray; text-align: left;""> press <strong>enter</strong> after each word!</p>
    </div>
    <style>
      #responses {
      position: relative;
      width: 300px;
      height: 40px; 
      }

      .furniture-practice-response {
        position: absolute;
        top: 0;
        left: 0;
        width: 100%;
        font-size: 20px;
        padding: 5px;
        box-sizing: border-box;
        opacity: 0.5;
      } 

      .furniture-practice-response.active {
      opacity: 1;
      z-index: 999;
      }
    </style>
    ",null,,11859,,,,VFT,furniture-practice,"[{""response"":""shelf"",""tag"":1},{""response"":""desk"",""tag"":2},{""response"":""sofa"",""tag"":3},{""response"":""couch"",""tag"":4},{""response"":""chair"",""tag"":5},{""response"":""table"",""tag"":6},{""response"":""kitchen island"",""tag"":7},{""response"":""cupboard"",""tag"":8},{""response"":""love chair"",""tag"":9},{""response"":""day bed"",""tag"":10},{""response"":""pull out couch"",""tag"":11},{""response"":""foot rest"",""tag"":12},{""response"":""bed"",""tag"":13},{""response"":""cabinet"",""tag"":14},{""response"":""bookshelf"",""tag"":15},{""response"":""stool"",""tag"":16},{""response"":""leather couch"",""tag"":17},{""response"":""hammock"",""tag"":18}]","[3815.5,2466.8,1316.5,1106.5,5396.8,1078.9,5599.3,1533.3,13687.7,13878.3,7853.9,4802.1,20350.6,13428.4,2349.3,12624.5,55527.4,7414.9]",
,html-button-response,4,627310,0.0-4.0,3,1,2025-07-09 13:55:36,348af30701339f9bbd7c58c3ad0c4853,139.140.223.237,"Mozilla/5.0 (Macintosh; Intel Mac OS X 10_15_7) AppleWebKit/537.36 (KHTML, like Gecko) Chrome/138.0.0.0 Safari/537.36",Macintosh,Chrome,138.0.0.0,OS X,10_15_7,null,"en-US,en;q=0.9",,13172,"
  <p style=""font-size:22px;""> <strong>Now, you will begin a spatial arrangement task.</strong></p>
  <p style=""font-size:17px;""> In this task, you will be shown the set of words you typed in the last verbal fluency task you performed.</p>
  <p style=""font-size:17px;""> We need to know how similar you think these words are to one another. Your job is to move each word</p>
  <p style=""font-size:17px;""> around so that the similar words are proportionately closer together. That is, you should move them into</p>
  <p style=""font-size:17px;""> space such that the distance between each pair of items represents how similar you think the pair is.</p>
  <p style=""font-size:17px;""> (with closer in space meaning more similar, and farther away in space meaning more dissimilar)</p>

  <video width = ""600"" height = ""400"" autoplay muted loop style = ""margin-top: 10px;"">
    <source src = ""SpAMTutorial.mp4"" type = ""video/mp4"">
  </video>

  <p style=""font-size:17px;""> The words will appear one by one in the top left corner of a box. You can move the words by simply</p>
  <p style=""font-size:17px;""> click/dragging them. If the words seem similar, place them close together, if they seem dissimilar,</p>
  <p style=""font-size:17px;""> place them farther away from each other. You will be doing this three times on three separate domains,</p> 
  <p style=""font-size:17px;""> with a different set of words each time, based the words you typed in the corresponding verbal fluency </p>
  <p style=""font-size:17px;""> task. After dragging each word, the next word will appear. You may rearrange previously placed items.</p>
  <p style=""font-size:17px;""> Note, to complete the trial, <u>all items</u> must be moved into the ""active arena,"" the large central box. </p>
  <p style=""font-size:17px;""> When you are finished arranging the space, click on the little Continue button at the bottom of the screen.</p>
  
    <p style=""font-size:5px;""> ‎</p>

  <p style=""font-size:17px;""> Let's continue with our practice round!</p>
  <p style=""font-size:17px;""> When you're ready, <strong>press begin.</strong></p>

  ",0,instructions,11859,,,,,,,,
,html-button-response,5,730742,0.0-5.0,3,1,2025-07-09 13:55:36,348af30701339f9bbd7c58c3ad0c4853,139.140.223.237,"Mozilla/5.0 (Macintosh; Intel Mac OS X 10_15_7) AppleWebKit/537.36 (KHTML, like Gecko) Chrome/138.0.0.0 Safari/537.36",Macintosh,Chrome,138.0.0.0,OS X,10_15_7,null,"en-US,en;q=0.9",,103430,"
        <p style=""font-size:20px;"">Arrange each word to the drop box below based on how related they are to one another.</p> 
        <p style=""font-size:18px;"">A new word will appear after <strong>each word</strong> you move.</p>
        <p style=""font-size:17px;""> When you are finished arranging the space, click on the little Continue button at the bottom of the screen.</p>
        <div id=""word-drop-area"" style=""
          margin-top: 40px;        
          height: 400px;        
          border: 2px solid #aaa;        
          padding: 10px;       
          font-size: 20px;       
          text-align: center;       
          color: #888;   
          position: relative;   
          ""></div>
          <p style=""font-size:14px; color: gray;"">Remember, previously placed words can be rearranged if needed!</p>
          <style>       
            .draggable {         
            display: inline-block;         
            background: #eef;         
            padding: 10px;         
            border: 1px solid #aaa;         
            border-radius: 4px;         
            cursor: move;         
            font-size: 18px;         
            margin-bottom: 5px;       
          }     
        </style>    
      ",0,,11859,,,,SpAM,furniture-practice,,,"[{""word"":""shelf"",""id"":""word-1"",""left"":""171px"",""top"":""80px""},{""word"":""desk"",""id"":""word-2"",""left"":""97px"",""top"":""234px""},{""word"":""sofa"",""id"":""word-3"",""left"":""320px"",""top"":""183px""},{""word"":""couch"",""id"":""word-4"",""left"":""378px"",""top"":""184px""},{""word"":""chair"",""id"":""word-5"",""left"":""99px"",""top"":""292px""},{""word"":""table"",""id"":""word-6"",""left"":""240px"",""top"":""73px""},{""word"":""table"",""id"":""word-6"",""left"":""23px"",""top"":""235px""},{""word"":""kitchen island"",""id"":""word-7"",""left"":""22px"",""top"":""173px""},{""word"":""chair"",""id"":""word-5"",""left"":""321px"",""top"":""239px""},{""word"":""cupboard"",""id"":""word-8"",""left"":""173px"",""top"":""26px""},{""word"":""love chair"",""id"":""word-9"",""left"":""391px"",""top"":""240px""},{""word"":""day bed"",""id"":""word-10"",""left"":""459px"",""top"":""182px""},{""word"":""pull out couch"",""id"":""word-11"",""left"":""362px"",""top"":""101px""},{""word"":""couch"",""id"":""word-4"",""left"":""381px"",""top"":""154px""},{""word"":""foot rest"",""id"":""word-12"",""left"":""505px"",""top"":""100px""},{""word"":""bed"",""id"":""word-13"",""left"":""260px"",""top"":""182px""},{""word"":""bed"",""id"":""word-13"",""left"":""356px"",""top"":""44px""},{""word"":""cabinet"",""id"":""word-14"",""left"":""82px"",""top"":""23px""},{""word"":""bookshelf"",""id"":""word-15"",""left"":""58px"",""top"":""80px""},{""word"":""stool"",""id"":""word-16"",""left"":""333px"",""top"":""292px""},{""word"":""leather couch"",""id"":""word-17"",""left"":""418px"",""top"":""43px""},{""word"":""hammock"",""id"":""word-18"",""left"":""497px"",""top"":""131px""},{""word"":""hammock"",""id"":""word-18"",""left"":""549px"",""top"":""181px""}]"
,html-button-response,6,739459,0.0-6.0,3,1,2025-07-09 13:55:36,348af30701339f9bbd7c58c3ad0c4853,139.140.223.237,"Mozilla/5.0 (Macintosh; Intel Mac OS X 10_15_7) AppleWebKit/537.36 (KHTML, like Gecko) Chrome/138.0.0.0 Safari/537.36",Macintosh,Chrome,138.0.0.0,OS X,10_15_7,null,"en-US,en;q=0.9",,8714,"
  <p style=""font-size:20px;"">You have completed the practice round!</p>
  <p style=""font-size:18x;""> Now, you will begin the actual task, consisting of three rounds with different categories.</p>
  <p style=""font-size:18x;""> Again, your first task is to first type in as many items as you can think of that correspond to the given category</p>
  <p style=""font-size:18x;""> within the time limit. Then, you will arrange the items you input previously in the box provided based on how related they are.</p>

  <p style=""font-size:10px;""> ‎</p>
  <p style=""font-size:18px;""> When you're ready, <strong>press begin</strong> to start the verbal fluency task.</p>

  ",0,instructions,11859,,,,,,,,
,html-keyboard-response,7,919462,0.0-7.0-0.0,3,1,2025-07-09 13:55:36,348af30701339f9bbd7c58c3ad0c4853,139.140.223.237,"Mozilla/5.0 (Macintosh; Intel Mac OS X 10_15_7) AppleWebKit/537.36 (KHTML, like Gecko) Chrome/138.0.0.0 Safari/537.36",Macintosh,Chrome,138.0.0.0,OS X,10_15_7,null,"en-US,en;q=0.9",,null,"
    <div id = ""timer-box""></div>
    <div id = ""response-input-box"">
      <p style = ""font-size:30px;"">Name as many ANIMALS as you can.</p>
      <div id = ""responses"">
        <input type = ""text"" class = ""animal-response active"" autofocus />
      </div>
      <p id = ""below-input-text"" style = ""font-size: 14px; margin-top: 10px; color: gray; text-align: left;""> press <strong>enter</strong> after each word!</p>
    </div>
    <style>
      #responses {
      position: relative;
      width: 300px;
      height: 40px; 
      }

      .animal-response {
        position: absolute;
        top: 0;
        left: 0;
        width: 100%;
        font-size: 20px;
        padding: 5px;
        box-sizing: border-box;
        opacity: 0.5;
      } 

      .animal-response.active {
      opacity: 1;
      z-index: 999;
      }
    </style>
    ",null,,11859,,,,VFT,animal,"[{""response"":""dog"",""tag"":1},{""response"":""cat"",""tag"":2},{""response"":""mouse"",""tag"":3},{""response"":""hamster"",""tag"":4},{""response"":""monkey"",""tag"":5},{""response"":""bull"",""tag"":6},{""response"":""ram"",""tag"":7},{""response"":""tiger"",""tag"":8},{""response"":""lion"",""tag"":9},{""response"":""sheep"",""tag"":10},{""response"":""hare"",""tag"":11},{""response"":""wolf"",""tag"":12},{""response"":""rhino"",""tag"":13},{""response"":""hippo"",""tag"":14},{""response"":""chimpanzee"",""tag"":15},{""response"":""squirrel"",""tag"":16},{""response"":""cow"",""tag"":17},{""response"":""horse"",""tag"":18},{""response"":""pig"",""tag"":19},{""response"":""donkey"",""tag"":20},{""response"":""chicken"",""tag"":21},{""response"":""rooster"",""tag"":22},{""response"":""salamander"",""tag"":23},{""response"":""lizzard"",""tag"":24},{""response"":""alligator"",""tag"":25},{""response"":""crocodile"",""tag"":26},{""response"":""fish"",""tag"":27},{""response"":""dolphin"",""tag"":28},{""response"":""shark"",""tag"":29},{""response"":""whale"",""tag"":30},{""response"":""octupus"",""tag"":31},{""response"":""goat"",""tag"":32},{""response"":""camel"",""tag"":33},{""response"":""crane"",""tag"":34},{""response"":""peacock"",""tag"":35},{""response"":""flamingo"",""tag"":36},{""response"":""rabbit"",""tag"":37},{""response"":""hamster"",""tag"":38},{""response"":""chinchilla"",""tag"":39},{""response"":""hedgehog"",""tag"":40},{""response"":""ferret"",""tag"":41},{""response"":""chameleon"",""tag"":42},{""response"":""giraffe"",""tag"":43},{""response"":""kangaroo"",""tag"":44},{""response"":""rat"",""tag"":45},{""response"":""grasshopper"",""tag"":46},{""response"":""skunk"",""tag"":47},{""response"":""moose"",""tag"":48},{""response"":""bear"",""tag"":49},{""response"":""polar bear"",""tag"":50},{""response"":""snake"",""tag"":51},{""response"":""eph"",""tag"":52},{""response"":""cheetah"",""tag"":53},{""response"":""leopard"",""tag"":54},{""response"":""panther"",""tag"":55}]","[2154.1,918,1133.6,1958.6,1674.4,2180.1,647.9,1654.2,1162.9,1406.5,1259,951.2,5724.7,1600.3,2678.9,4411,1304.5,1033.6,2999.3,2983.4,1396.8,2633.5,1937,3696.1,3598.9,3538.1,2019,2562.3,1832.6,1064.1,2156.5,3398.4,9163.4,5763.3,4433.7,1472,9515.1,1506.5,2476.2,4567.1,998.5,6704.9,5629.5,4056.5,4547.3,16130,2334.1,1648.7,1138.7,3954.3,1956.9,5100.7,2699.2,1457.4,5625.8]",
,html-button-response,8,923708,0.0-8.0,3,1,2025-07-09 13:55:36,348af30701339f9bbd7c58c3ad0c4853,139.140.223.237,"Mozilla/5.0 (Macintosh; Intel Mac OS X 10_15_7) AppleWebKit/537.36 (KHTML, like Gecko) Chrome/138.0.0.0 Safari/537.36",Macintosh,Chrome,138.0.0.0,OS X,10_15_7,null,"en-US,en;q=0.9",,4242,"
  <p style=""font-size:20px;""> <strong>You are moving to the spatial arrangement task.</strong></p>
  <p style=""font-size:16px;""> As a reminder, in this task, you will be shown a set of words.</p>
  <p style=""font-size:16px;""> We need to know how similar you think these words are to one another.</p>
  <p style=""font-size:16px;""> To indicate your perception of similarity, you will move each word</p> 
  <p style=""font-size:16px;""> around so that the similar ones are proportionately closer together.</p>
  <p style=""font-size:16px;""> If the words seem similar, place them close together, if they seem</p>
  <p style=""font-size:16px;""> dissimilar, place them farther away from each other.</p>
  <p style=""font-size:10px;""> ‎</p>
  <p style=""font-size:18px;""> Press begin to start.</p>

  ",0,instructions,11859,,,,,,,,
,html-button-response,9,1184823,0.0-9.0,3,1,2025-07-09 13:55:36,348af30701339f9bbd7c58c3ad0c4853,139.140.223.237,"Mozilla/5.0 (Macintosh; Intel Mac OS X 10_15_7) AppleWebKit/537.36 (KHTML, like Gecko) Chrome/138.0.0.0 Safari/537.36",Macintosh,Chrome,138.0.0.0,OS X,10_15_7,null,"en-US,en;q=0.9",,261114,"
        <p style=""font-size:20px;"">Arrange each word to the drop box below based on how related they are to one another.</p> 
        <p style=""font-size:18px;"">A new word will appear after <strong>each word</strong> you move.</p>
        <p style=""font-size:17px;""> When you are finished arranging the space, click on the little Continue button at the bottom of the screen.</p>
        <div id=""word-drop-area"" style=""
          margin-top: 40px;        
          height: 400px;        
          border: 2px solid #aaa;        
          padding: 10px;       
          font-size: 20px;       
          text-align: center;       
          color: #888;   
          position: relative;   
          ""></div>
          <p style=""font-size:14px; color: gray;"">Remember, previously placed words can be rearranged if needed!</p>
          <style>       
            .draggable {         
            display: inline-block;         
            background: #eef;         
            padding: 10px;         
            border: 1px solid #aaa;         
            border-radius: 4px;         
            cursor: move;         
            font-size: 18px;         
            margin-bottom: 5px;       
          }     
        </style>    
      ",0,,11859,,,,SpAM,animal,,,"[{""word"":""dog"",""id"":""word-1"",""left"":""253px"",""top"":""16px""},{""word"":""cat"",""id"":""word-2"",""left"":""309px"",""top"":""17px""},{""word"":""mouse"",""id"":""word-3"",""left"":""250px"",""top"":""69px""},{""word"":""hamster"",""id"":""word-4"",""left"":""331px"",""top"":""67px""},{""word"":""monkey"",""id"":""word-5"",""left"":""243px"",""top"":""188px""},{""word"":""bull"",""id"":""word-6"",""left"":""596px"",""top"":""43px""},{""word"":""ram"",""id"":""word-7"",""left"":""653px"",""top"":""41px""},{""word"":""tiger"",""id"":""word-8"",""left"":""595px"",""top"":""98px""},{""word"":""lion"",""id"":""word-9"",""left"":""657px"",""top"":""98px""},{""word"":""sheep"",""id"":""word-10"",""left"":""159px"",""top"":""68px""},{""word"":""hare"",""id"":""word-11"",""left"":""158px"",""top"":""11px""},{""word"":""monkey"",""id"":""word-5"",""left"":""260px"",""top"":""270px""},{""word"":""wolf"",""id"":""word-12"",""left"":""358px"",""top"":""14px""},{""word"":""rhino"",""id"":""word-13"",""left"":""659px"",""top"":""151px""},{""word"":""hippo"",""id"":""word-14"",""left"":""582px"",""top"":""151px""},{""word"":""chimpanzee"",""id"":""word-15"",""left"":""353px"",""top"":""270px""},{""word"":""squirrel"",""id"":""word-16"",""left"":""247px"",""top"":""125px""},{""word"":""cow"",""id"":""word-17"",""left"":""182px"",""top"":""124px""},{""word"":""horse"",""id"":""word-18"",""left"":""107px"",""top"":""122px""},{""word"":""pig"",""id"":""word-19"",""left"":""186px"",""top"":""179px""},{""word"":""monkey"",""id"":""word-5"",""left"":""393px"",""top"":""328px""},{""word"":""donkey"",""id"":""word-20"",""left"":""92px"",""top"":""178px""},{""word"":""chicken"",""id"":""word-21"",""left"":""99px"",""top"":""230px""},{""word"":""rooster"",""id"":""word-22"",""left"":""188px"",""top"":""229px""},{""word"":""salamander"",""id"":""word-23"",""left"":""586px"",""top"":""259px""},{""word"":""lizzard"",""id"":""word-24"",""left"":""589px"",""top"":""313px""},{""word"":""alligator"",""id"":""word-25"",""left"":""671px"",""top"":""314px""},{""word"":""crocodile"",""id"":""word-26"",""left"":""577px"",""top"":""366px""},{""word"":""fish"",""id"":""word-27"",""left"":""679px"",""top"":""367px""},{""word"":""dolphin"",""id"":""word-28"",""left"":""736px"",""top"":""373px""},{""word"":""salamander"",""id"":""word-23"",""left"":""552px"",""top"":""245px""},{""word"":""lizzard"",""id"":""word-24"",""left"":""548px"",""top"":""303px""},{""word"":""crocodile"",""id"":""word-26"",""left"":""552px"",""top"":""357px""},{""word"":""alligator"",""id"":""word-25"",""left"":""632px"",""top"":""301px""},{""word"":""fish"",""id"":""word-27"",""left"":""658px"",""top"":""358px""},{""word"":""dolphin"",""id"":""word-28"",""left"":""713px"",""top"":""357px""},{""word"":""shark"",""id"":""word-29"",""left"":""729px"",""top"":""299px""},{""word"":""whale"",""id"":""word-30"",""left"":""724px"",""top"":""242px""},{""word"":""bull"",""id"":""word-6"",""left"":""504px"",""top"":""9px""},{""word"":""ram"",""id"":""word-7"",""left"":""557px"",""top"":""9px""},{""word"":""tiger"",""id"":""word-8"",""left"":""501px"",""top"":""60px""},{""word"":""lion"",""id"":""word-9"",""left"":""563px"",""top"":""62px""},{""word"":""hippo"",""id"":""word-14"",""left"":""496px"",""top"":""112px""},{""word"":""rhino"",""id"":""word-13"",""left"":""566px"",""top"":""114px""},{""word"":""octupus"",""id"":""word-31"",""left"":""722px"",""top"":""189px""},{""word"":""goat"",""id"":""word-32"",""left"":""237px"",""top"":""175px""},{""word"":""camel"",""id"":""word-33"",""left"":""676px"",""top"":""6px""},{""word"":""crane"",""id"":""word-34"",""left"":""32px"",""top"":""336px""},{""word"":""peacock"",""id"":""word-35"",""left"":""102px"",""top"":""338px""},{""word"":""flamingo"",""id"":""word-36"",""left"":""196px"",""top"":""335px""},{""word"":""rabbit"",""id"":""word-37"",""left"":""336px"",""top"":""123px""},{""word"":""hamster"",""id"":""word-38"",""left"":""300px"",""top"":""177px""},{""word"":""hamster"",""id"":""word-38"",""left"":""328px"",""top"":""68px""},{""word"":""chinchilla"",""id"":""word-39"",""left"":""547px"",""top"":""192px""},{""word"":""hedgehog"",""id"":""word-40"",""left"":""297px"",""top"":""175px""},{""word"":""ferret"",""id"":""word-41"",""left"":""401px"",""top"":""177px""},{""word"":""ferret"",""id"":""word-41"",""left"":""363px"",""top"":""178px""},{""word"":""chameleon"",""id"":""word-42"",""left"":""583px"",""top"":""248px""},{""word"":""giraffe"",""id"":""word-43"",""left"":""620px"",""top"":""65px""},{""word"":""camel"",""id"":""word-33"",""left"":""621px"",""top"":""10px""},{""word"":""kangaroo"",""id"":""word-44"",""left"":""695px"",""top"":""9px""},{""word"":""rat"",""id"":""word-45"",""left"":""230px"",""top"":""67px""},{""word"":""grasshopper"",""id"":""word-46"",""left"":""36px"",""top"":""6px""},{""word"":""skunk"",""id"":""word-47"",""left"":""202px"",""top"":""20px""},{""word"":""moose"",""id"":""word-48"",""left"":""458px"",""top"":""10px""},{""word"":""bear"",""id"":""word-49"",""left"":""709px"",""top"":""67px""},{""word"":""moose"",""id"":""word-48"",""left"":""737px"",""top"":""79px""},{""word"":""bear"",""id"":""word-49"",""left"":""711px"",""top"":""65px""},{""word"":""polar bear"",""id"":""word-50"",""left"":""651px"",""top"":""95px""},{""word"":""snake"",""id"":""word-51"",""left"":""580px"",""top"":""260px""},{""word"":""snake"",""id"":""word-51"",""left"":""540px"",""top"":""299px""},{""word"":""eph"",""id"":""word-52"",""left"":""767px"",""top"":""111px""},{""word"":""cheetah"",""id"":""word-53"",""left"":""473px"",""top"":""71px""},{""word"":""leopard"",""id"":""word-54"",""left"":""474px"",""top"":""77px""},{""word"":""panther"",""id"":""word-55"",""left"":""470px"",""top"":""86px""},{""word"":""chimpanzee"",""id"":""word-15"",""left"":""345px"",""top"":""315px""},{""word"":""flamingo"",""id"":""word-36"",""left"":""179px"",""top"":""335px""},{""word"":""peacock"",""id"":""word-35"",""left"":""87px"",""top"":""331px""}]"
,html-button-response,10,1195040,0.0-10.0,3,1,2025-07-09 13:55:36,348af30701339f9bbd7c58c3ad0c4853,139.140.223.237,"Mozilla/5.0 (Macintosh; Intel Mac OS X 10_15_7) AppleWebKit/537.36 (KHTML, like Gecko) Chrome/138.0.0.0 Safari/537.36",Macintosh,Chrome,138.0.0.0,OS X,10_15_7,null,"en-US,en;q=0.9",,10214,"
  <p style=""font-size:18px;""> <strong>You will now move to the next category.</strong></p>
  <p style=""font-size:16px;""> As a reminder, in this task, you will type as many words as you can </p> 
  <p style=""font-size:16px;""> think of that correspond to the category presented in capital letters.</p>
  <p style=""font-size:18px;""> Press begin to start.</p>

  ",0,instructions,11859,,,,,,,,
,html-keyboard-response,11,1375044,0.0-11.0-0.0,3,1,2025-07-09 13:55:36,348af30701339f9bbd7c58c3ad0c4853,139.140.223.237,"Mozilla/5.0 (Macintosh; Intel Mac OS X 10_15_7) AppleWebKit/537.36 (KHTML, like Gecko) Chrome/138.0.0.0 Safari/537.36",Macintosh,Chrome,138.0.0.0,OS X,10_15_7,null,"en-US,en;q=0.9",,null,"
    <div id = ""timer-box""></div>
    <div id = ""response-input-box"">
      <p style = ""font-size:30px;"">Name as many FOODS as you can.</p>
      <div id = ""responses"">
        <input type = ""text"" class = ""food-response active"" autofocus />
      </div>
      <p id = ""below-input-text"" style = ""font-size: 14px; margin-top: 10px; color: gray; text-align: left;""> press <strong>enter</strong> after each word!</p>
    </div>
    <style>
      #responses {
      position: relative;
      width: 300px;
      height: 40px; 
      }

      .food-response {
        position: absolute;
        top: 0;
        left: 0;
        width: 100%;
        font-size: 20px;
        padding: 5px;
        box-sizing: border-box;
        opacity: 0.5;
      } 

      .food-response.active {
      opacity: 1;
      z-index: 999;
      }
    </style>
    ",null,,11859,,,,VFT,food,"[{""response"":""pizza"",""tag"":1},{""response"":""pasta"",""tag"":2},{""response"":""chicken tikka masala"",""tag"":3},{""response"":""chole"",""tag"":4},{""response"":""naan"",""tag"":5},{""response"":""kulfi"",""tag"":6},{""response"":""gulab jamun"",""tag"":7},{""response"":""jalebi"",""tag"":8},{""response"":""roti"",""tag"":9},{""response"":""soup"",""tag"":10},{""response"":""beans"",""tag"":11},{""response"":""toast"",""tag"":12},{""response"":""eggs"",""tag"":13},{""response"":""cereal"",""tag"":14},{""response"":""avacad"",""tag"":15},{""response"":""tomato"",""tag"":16},{""response"":""cucumber"",""tag"":17},{""response"":""carrot"",""tag"":18},{""response"":""spinach"",""tag"":19},{""response"":""brownie"",""tag"":20},{""response"":""cake"",""tag"":21},{""response"":""cupcake"",""tag"":22},{""response"":""creme brulee"",""tag"":23},{""response"":""crepe"",""tag"":24},{""response"":""dosa"",""tag"":25},{""response"":""tortilla"",""tag"":26},{""response"":""wrap"",""tag"":27},{""response"":""burrito"",""tag"":28},{""response"":""sandwich"",""tag"":29},{""response"":""panini"",""tag"":30},{""response"":""chicken"",""tag"":31},{""response"":""beef"",""tag"":32},{""response"":""fish"",""tag"":33},{""response"":""potato"",""tag"":34},{""response"":""pork"",""tag"":35},{""response"":""ribs"",""tag"":36},{""response"":""lasagna"",""tag"":37},{""response"":""kebab"",""tag"":38},{""response"":""fufu"",""tag"":39},{""response"":""curry"",""tag"":40},{""response"":""paneer"",""tag"":41},{""response"":""tofu"",""tag"":42},{""response"":""gravy"",""tag"":43},{""response"":""mashed potato"",""tag"":44},{""response"":""stuffing"",""tag"":45},{""response"":""oatmeal"",""tag"":46},{""response"":""ice cream"",""tag"":47},{""response"":""yogurt"",""tag"":48},{""response"":""cottage cheese"",""tag"":49},{""response"":""feta cheese"",""tag"":50},{""response"":""grape"",""tag"":51},{""response"":""orange"",""tag"":52},{""response"":""watermelon"",""tag"":53},{""response"":""mango"",""tag"":54},{""response"":""lychee"",""tag"":55},{""response"":""burger"",""tag"":56}]","[3123.7,1176.5,4031,1004.2,2600.8,1613.5,2930.8,6593.1,2238.2,2810.9,1529.7,1679.8,889.7,3000.4,2676.1,6580.1,2259.5,927,1955.4,2648.9,937.3,1974.4,2525.5,1025.6,2887.8,5949.8,1346.2,2271.8,1974.5,2004,3392.8,641.7,2695.3,3071.8,6397.7,5917.7,6837.1,3761.7,2369.6,4794.6,2104.3,2979.9,4073,3983.6,3097.9,7271.4,1747.4,4660.5,2170.8,6672.4,6507.8,2139.6,2443.3,7035.5,1005.6,6244.9]",
,html-button-response,12,1377338,0.0-12.0,3,1,2025-07-09 13:55:36,348af30701339f9bbd7c58c3ad0c4853,139.140.223.237,"Mozilla/5.0 (Macintosh; Intel Mac OS X 10_15_7) AppleWebKit/537.36 (KHTML, like Gecko) Chrome/138.0.0.0 Safari/537.36",Macintosh,Chrome,138.0.0.0,OS X,10_15_7,null,"en-US,en;q=0.9",,2292,"
  <p style=""font-size:20px;""> <strong>You are moving to the spatial arrangement task.</strong></p>
  <p style=""font-size:16px;""> As a reminder, in this task, you will be shown a set of words.</p>
  <p style=""font-size:16px;""> We need to know how similar you think these words are to one another.</p>
  <p style=""font-size:16px;""> To indicate your perception of similarity, you will move each word</p> 
  <p style=""font-size:16px;""> around so that the similar ones are proportionately closer together.</p>
  <p style=""font-size:16px;""> If the words seem similar, place them close together, if they seem</p>
  <p style=""font-size:16px;""> dissimilar, place them farther away from each other.</p>
  <p style=""font-size:10px;""> ‎</p>
  <p style=""font-size:18px;""> Press begin to start.</p>

  ",0,instructions,11859,,,,,,,,
,html-button-response,13,1568138,0.0-13.0,3,1,2025-07-09 13:55:36,348af30701339f9bbd7c58c3ad0c4853,139.140.223.237,"Mozilla/5.0 (Macintosh; Intel Mac OS X 10_15_7) AppleWebKit/537.36 (KHTML, like Gecko) Chrome/138.0.0.0 Safari/537.36",Macintosh,Chrome,138.0.0.0,OS X,10_15_7,null,"en-US,en;q=0.9",,190798,"
        <p style=""font-size:20px;"">Arrange each word to the drop box below based on how related they are to one another.</p> 
        <p style=""font-size:18px;"">A new word will appear after <strong>each word</strong> you move.</p>
        <p style=""font-size:17px;""> When you are finished arranging the space, click on the little Continue button at the bottom of the screen.</p>
        <div id=""word-drop-area"" style=""
          margin-top: 40px;        
          height: 400px;        
          border: 2px solid #aaa;        
          padding: 10px;       
          font-size: 20px;       
          text-align: center;       
          color: #888;   
          position: relative;   
          ""></div>
          <p style=""font-size:14px; color: gray;"">Remember, previously placed words can be rearranged if needed!</p>
          <style>       
            .draggable {         
            display: inline-block;         
            background: #eef;         
            padding: 10px;         
            border: 1px solid #aaa;         
            border-radius: 4px;         
            cursor: move;         
            font-size: 18px;         
            margin-bottom: 5px;       
          }     
        </style>    
      ",0,,11859,,,,SpAM,food,,,"[{""word"":""pizza"",""id"":""word-1"",""left"":""183px"",""top"":""96px""},{""word"":""pasta"",""id"":""word-2"",""left"":""181px"",""top"":""123px""},{""word"":""pasta"",""id"":""word-2"",""left"":""180px"",""top"":""113px""},{""word"":""chicken tikka masala"",""id"":""word-3"",""left"":""387px"",""top"":""14px""},{""word"":""chole"",""id"":""word-4"",""left"":""371px"",""top"":""37px""},{""word"":""naan"",""id"":""word-5"",""left"":""417px"",""top"":""38px""},{""word"":""kulfi"",""id"":""word-6"",""left"":""472px"",""top"":""37px""},{""word"":""gulab jamun"",""id"":""word-7"",""left"":""520px"",""top"":""39px""},{""word"":""jalebi"",""id"":""word-8"",""left"":""500px"",""top"":""70px""},{""word"":""chicken tikka masala"",""id"":""word-3"",""left"":""389px"",""top"":""0px""},{""word"":""roti"",""id"":""word-9"",""left"":""424px"",""top"":""67px""},{""word"":""soup"",""id"":""word-10"",""left"":""302px"",""top"":""175px""},{""word"":""soup"",""id"":""word-10"",""left"":""302px"",""top"":""175px""},{""word"":""pasta"",""id"":""word-2"",""left"":""182px"",""top"":""123px""},{""word"":""beans"",""id"":""word-11"",""left"":""358px"",""top"":""180px""},{""word"":""toast"",""id"":""word-12"",""left"":""368px"",""top"":""218px""},{""word"":""eggs"",""id"":""word-13"",""left"":""423px"",""top"":""219px""},{""word"":""cereal"",""id"":""word-14"",""left"":""428px"",""top"":""264px""},{""word"":""avacad"",""id"":""word-15"",""left"":""474px"",""top"":""208px""},{""word"":""tomato"",""id"":""word-16"",""left"":""518px"",""top"":""230px""},{""word"":""cucumber"",""id"":""word-17"",""left"":""509px"",""top"":""265px""},{""word"":""carrot"",""id"":""word-18"",""left"":""562px"",""top"":""247px""},{""word"":""spinach"",""id"":""word-19"",""left"":""537px"",""top"":""281px""},{""word"":""brownie"",""id"":""word-20"",""left"":""592px"",""top"":""104px""},{""word"":""cake"",""id"":""word-21"",""left"":""652px"",""top"":""84px""},{""word"":""cupcake"",""id"":""word-22"",""left"":""692px"",""top"":""60px""},{""word"":""creme brulee"",""id"":""word-23"",""left"":""617px"",""top"":""142px""},{""word"":""crepe"",""id"":""word-24"",""left"":""709px"",""top"":""168px""},{""word"":""dosa"",""id"":""word-25"",""left"":""740px"",""top"":""197px""},{""word"":""tortilla"",""id"":""word-26"",""left"":""113px"",""top"":""236px""},{""word"":""wrap"",""id"":""word-27"",""left"":""88px"",""top"":""265px""},{""word"":""burrito"",""id"":""word-28"",""left"":""142px"",""top"":""274px""},{""word"":""sandwich"",""id"":""word-29"",""left"":""53px"",""top"":""307px""},{""word"":""panini"",""id"":""word-30"",""left"":""29px"",""top"":""272px""},{""word"":""chicken"",""id"":""word-31"",""left"":""42px"",""top"":""133px""},{""word"":""beef"",""id"":""word-32"",""left"":""28px"",""top"":""99px""},{""word"":""fish"",""id"":""word-33"",""left"":""24px"",""top"":""158px""},{""word"":""potato"",""id"":""word-34"",""left"":""162px"",""top"":""59px""},{""word"":""pork"",""id"":""word-35"",""left"":""75px"",""top"":""105px""},{""word"":""ribs"",""id"":""word-36"",""left"":""67px"",""top"":""165px""},{""word"":""lasagna"",""id"":""word-37"",""left"":""233px"",""top"":""109px""},{""word"":""kebab"",""id"":""word-38"",""left"":""21px"",""top"":""60px""},{""word"":""fufu"",""id"":""word-39"",""left"":""435px"",""top"":""98px""},{""word"":""curry"",""id"":""word-40"",""left"":""482px"",""top"":""104px""},{""word"":""curry"",""id"":""word-40"",""left"":""349px"",""top"":""0px""},{""word"":""paneer"",""id"":""word-41"",""left"":""295px"",""top"":""0px""},{""word"":""tofu"",""id"":""word-42"",""left"":""274px"",""top"":""0px""},{""word"":""tofu"",""id"":""word-42"",""left"":""304px"",""top"":""0px""},{""word"":""gravy"",""id"":""word-43"",""left"":""336px"",""top"":""43px""},{""word"":""gravy"",""id"":""word-43"",""left"":""308px"",""top"":""304px""},{""word"":""mashed potato"",""id"":""word-44"",""left"":""275px"",""top"":""340px""},{""word"":""stuffing"",""id"":""word-45"",""left"":""304px"",""top"":""328px""},{""word"":""oatmeal"",""id"":""word-46"",""left"":""455px"",""top"":""302px""},{""word"":""ice cream"",""id"":""word-47"",""left"":""651px"",""top"":""175px""},{""word"":""yogurt"",""id"":""word-48"",""left"":""660px"",""top"":""217px""},{""word"":""cottage cheese"",""id"":""word-49"",""left"":""665px"",""top"":""258px""},{""word"":""feta cheese"",""id"":""word-50"",""left"":""684px"",""top"":""262px""},{""word"":""grape"",""id"":""word-51"",""left"":""547px"",""top"":""310px""},{""word"":""orange"",""id"":""word-52"",""left"":""551px"",""top"":""315px""},{""word"":""watermelon"",""id"":""word-53"",""left"":""563px"",""top"":""320px""},{""word"":""mango"",""id"":""word-54"",""left"":""576px"",""top"":""328px""},{""word"":""lychee"",""id"":""word-55"",""left"":""583px"",""top"":""333px""},{""word"":""burger"",""id"":""word-56"",""left"":""181px"",""top"":""233px""}]"
,html-button-response,14,1583320,0.0-14.0,3,1,2025-07-09 13:55:36,348af30701339f9bbd7c58c3ad0c4853,139.140.223.237,"Mozilla/5.0 (Macintosh; Intel Mac OS X 10_15_7) AppleWebKit/537.36 (KHTML, like Gecko) Chrome/138.0.0.0 Safari/537.36",Macintosh,Chrome,138.0.0.0,OS X,10_15_7,null,"en-US,en;q=0.9",,15180,"<p>You have completed the experiment. Thank you for participating! </p>
      <p> Please click <a href=""https://bit.ly/3t1aLGU"" target=""_blank"" rel=""noopener noreferrer"">here</a> to access the debriefing form and know more about our research.</p>
      <p> Please click the button below to finish the experiment and save your data.</p>
      <p> IMPORTANT: Please do not leave this page without clicking the button below.</p>
        ",0,,,,,,,,,,
,call-function,0,0,0.0-0.0,10,1,2025-07-14 18:24:13,01a1fdd02c2d092b42551a60c16bc98f,139.140.216.106,"Mozilla/5.0 (Macintosh; Intel Mac OS X 10_15_7) AppleWebKit/537.36 (KHTML, like Gecko) Chrome/138.0.0.0 Safari/537.36",Macintosh,Chrome,138.0.0.0,OS X,10_15_7,null,"en-US,en;q=0.9",,,,,,,,,,,,,,,,,,,,,,,,,,
,html-button-response,1,2806,0.0-1.0,10,1,2025-07-14 18:24:13,01a1fdd02c2d092b42551a60c16bc98f,139.140.216.106,"Mozilla/5.0 (Macintosh; Intel Mac OS X 10_15_7) AppleWebKit/537.36 (KHTML, like Gecko) Chrome/138.0.0.0 Safari/537.36",Macintosh,Chrome,138.0.0.0,OS X,10_15_7,null,"en-US,en;q=0.9",,2804,"
 <p style=""font-size:20px;""> Thank you for taking part in this experiment!</p>
 <p style=""font-size:20px;""> ‎</p>
 <p style=""font-size:18px;""> Before we walk you through the tasks you will be doing, we would like to get a sense of what</p>
 <p style=""font-size:18px;""> content you typically consume on the Reddit platform. On the preceeding page, we ask that you</p>
 <p style=""font-size:18px;""> input the names of the Subreddits you typically engage with in any capacity. (i.e. writing posts,</p>
 <p style=""font-size:18px;""> reading posts, upvoting, commenting, sharing, etc.) On the page following that, we ask that you input</p>
 <p style=""font-size:18px;""> your general interests, independent of specific Subreddits. To input a response, type it within the </p>
 <p style=""font-size:18px;""> provided box and <strong>press ENTER</strong> after every response. Keep in mind, there will be a three minute</p>
 <p style=""font-size:18px;""> time limit. However, if you feel you are done before time runs out, <strong>press continue</strong>. This data</p>
 <p style=""font-size:18px;""> is crucial to the experiment, so please be as accurate possible when typing your responses.</p>


 <p style=""font-size:20px;""> ‎</p>
 <p style=""font-size:18px;""> After you complete these tasks, you will be provided further instructions and continue to the actual experiment.</p>
 <p style=""font-size:18px;""> When you are ready to start, <strong>press Continue.</strong></p>


 ",0,instructions,21466,,,,,,,,,,,,,,,,,,,,
,html-keyboard-response,2,12809,0.0-2.0-0.0,10,1,2025-07-14 18:24:13,01a1fdd02c2d092b42551a60c16bc98f,139.140.216.106,"Mozilla/5.0 (Macintosh; Intel Mac OS X 10_15_7) AppleWebKit/537.36 (KHTML, like Gecko) Chrome/138.0.0.0 Safari/537.36",Macintosh,Chrome,138.0.0.0,OS X,10_15_7,null,"en-US,en;q=0.9",,null,"
    <div id = ""timer-box""></div>
    <div id = ""response-input-box"">
      <p style = ""font-size:30px;"">Please type in the names of the Subreddits you frequently engage with</p>
      <div id = ""responses"">
        <input type = ""text"" class = ""subreddits-response active"" autofocus />
      </div>
      <p id = ""below-input-text"" style = ""font-size: 14px; margin-top: 10px; color: gray; text-align: left;""> press <strong>enter</strong> after each word!</p>
      <button id = ""continue-btn"" style = ""margin-top: 15px; padding: 10px 20px font-size:16px;"">Continue</button> 
    </div>
    <style>
      #responses {
      position: relative;
      width: 300px;
      height: 40px; 
      }

      .subreddits-response {
        position: absolute;
        top: 0;
        left: 0;
        width: 100%;
        font-size: 20px;
        padding: 5px;
        box-sizing: border-box;
        opacity: 0.5;
      } 

      .subreddits-response.active {
      opacity: 1;
      z-index: 999;
      }
    </style>
    ",null,,21466,,,,VFT,subreddits,"[{""response"":""r/animals"",""tag"":1},{""response"":""r/plants"",""tag"":2},{""response"":""r/jewlery"",""tag"":3}]","[2593.1,2641.2,4199.2]",,false,,,,,,,,,,,
,html-keyboard-response,3,18312,0.0-3.0-0.0,10,1,2025-07-14 18:24:13,01a1fdd02c2d092b42551a60c16bc98f,139.140.216.106,"Mozilla/5.0 (Macintosh; Intel Mac OS X 10_15_7) AppleWebKit/537.36 (KHTML, like Gecko) Chrome/138.0.0.0 Safari/537.36",Macintosh,Chrome,138.0.0.0,OS X,10_15_7,null,"en-US,en;q=0.9",,,,,,21466,,,,VFT,interest,"[{""response"":""animals"",""tag"":1},{""response"":""plants"",""tag"":2}]","[2302.5,1897.7]",,false,"[{""response"":""animals"",""tag"":1},{""response"":""plants"",""tag"":2}]",,,,,,,,,,
,html-button-response,4,27336,0.0-4.0,10,1,2025-07-14 18:24:13,01a1fdd02c2d092b42551a60c16bc98f,139.140.216.106,"Mozilla/5.0 (Macintosh; Intel Mac OS X 10_15_7) AppleWebKit/537.36 (KHTML, like Gecko) Chrome/138.0.0.0 Safari/537.36",Macintosh,Chrome,138.0.0.0,OS X,10_15_7,null,"en-US,en;q=0.9",,9023,"
  <p style=""font-size:20px;""> You will now proceed with the acutal experiment.</p>
  <p style=""font-size:20px;""> ‎</p>
  <p style=""font-size:22px;""> <strong>This experiment has two tasks:</strong></p>
  <p style=""font-size:18px;""> <u>In the first task</u>, you will be presented the name of a category and must type 
  <p style=""font-size:18px;""> in as many items that correspond to that category as you can within the time limit. </p>
  <p style=""font-size:18px;""> <u>In the second task</u>, you will move each of the words that you typed in the first </p>
  <p style=""font-size:18px;""> task around so that the similar ones are proportionately closer together.</p>
  <p style=""font-size:18px;""> The experiment will consist of only 3 ""trials,"" so please be as accurate/precise as 
  <p style=""font-size:18px;""> possible when typing in items and placing the objects, rather than trying to speed through.</p>
  <p style=""font-size:20px;""> ‎</p>
  <p style=""font-size:18px;""> Before you get started, we just want to get you familiar with the experiment layout. We'll walk you through</p>
  <p style=""font-size:18px;""> a practice verbal fluency and spatial arrangement task and provide more detailed instructions.</p>


  <p style=""font-size:18px;""> When you are ready to start, <strong>press Continue.</strong></p>

  ",0,instructions,21466,,,,,,,,,,,,,,,,,,,,
,html-button-response,5,41142,0.0-5.0,10,1,2025-07-14 18:24:13,01a1fdd02c2d092b42551a60c16bc98f,139.140.216.106,"Mozilla/5.0 (Macintosh; Intel Mac OS X 10_15_7) AppleWebKit/537.36 (KHTML, like Gecko) Chrome/138.0.0.0 Safari/537.36",Macintosh,Chrome,138.0.0.0,OS X,10_15_7,null,"en-US,en;q=0.9",,13802,"
  <p style=""font-size:22px;""><strong>You are about to perform a verbal fluency task.</strong></p>
  <p style=""font-size:17px;""> In this task, you will be presented the name of a category (e.g., FURNITURE) in capital</p>
  <p style=""font-size:17px;""> letters. Your job is to type in as many items as you can think of that correspond to that</p>
  <p style=""font-size:17px;""> category in 3 minutes. You will be doing this three times on three separate domains.</p> 
  

  <video width = ""600"" height = ""300"" autoplay muted loop style = ""margin-top: 10px;"">
    <source src = ""VFTTutorial.mp4"" type = ""video/mp4"">
  </video>

  <p style=""font-size:17px;""> After you type in each word, press <strong>ENTER</strong> to type in the next </p>
  <p style=""font-size:17px;""> word. When the timer runs out, you will automatically proceed to the next task.</p>

  <p style=""font-size:17px;""> When you're ready, <strong>press Begin</strong> to practice! For the practice trial,</p>
  <p style=""font-size:17px;""> you will be given 1 minute, but remember you will be given 3 minutes for the real task.</p> 





  ",0,instructions,21466,,,,,,,,,,,,,,,,,,,,
,html-keyboard-response,6,51145,0.0-6.0-0.0,10,1,2025-07-14 18:24:13,01a1fdd02c2d092b42551a60c16bc98f,139.140.216.106,"Mozilla/5.0 (Macintosh; Intel Mac OS X 10_15_7) AppleWebKit/537.36 (KHTML, like Gecko) Chrome/138.0.0.0 Safari/537.36",Macintosh,Chrome,138.0.0.0,OS X,10_15_7,null,"en-US,en;q=0.9",,null,"
    <div id = ""timer-box""></div>
    <div id = ""response-input-box"">
      <p style = ""font-size:30px;"">Name as many items of <strong>FURNITURE</strong> as you can.</p>
      <div id = ""responses"">
        <input type = ""text"" class = ""furniture-practice-response active"" autofocus />
      </div>
      <p id = ""below-input-text"" style = ""font-size: 14px; margin-top: 10px; color: gray; text-align: left;""> press <strong>enter</strong> after each word!</p>
    </div>
    <style>
      #responses {
      position: relative;
      width: 300px;
      height: 40px; 
      }

      .furniture-practice-response {
        position: absolute;
        top: 0;
        left: 0;
        width: 100%;
        font-size: 20px;
        padding: 5px;
        box-sizing: border-box;
        opacity: 0.5;
      } 

      .furniture-practice-response.active {
      opacity: 1;
      z-index: 999;
      }
    </style>
    ",null,,21466,,,,VFT,furniture-practice,"[{""response"":""chair"",""tag"":1},{""response"":""desk"",""tag"":2},{""response"":""bed"",""tag"":3},{""response"":""lamp"",""tag"":4},{""response"":""couch"",""tag"":5}]","[2255,1153.8,671.4,1656.3,2039.1]",,,,,,,,,,,,,
,html-button-response,7,89209,0.0-7.0,10,1,2025-07-14 18:24:13,01a1fdd02c2d092b42551a60c16bc98f,139.140.216.106,"Mozilla/5.0 (Macintosh; Intel Mac OS X 10_15_7) AppleWebKit/537.36 (KHTML, like Gecko) Chrome/138.0.0.0 Safari/537.36",Macintosh,Chrome,138.0.0.0,OS X,10_15_7,null,"en-US,en;q=0.9",,38059,"
  <p style=""font-size:22px;""> <strong>Now, you will begin a spatial arrangement task.</strong></p>
  <p style=""font-size:17px;""> In this task, you will be shown the set of words you typed in the last verbal fluency task you performed.</p>
  <p style=""font-size:17px;""> We need to know how similar you think these words are to one another. Your job is to move each word</p>
  <p style=""font-size:17px;""> around so that the similar words are proportionately closer together. That is, you should move them into</p>
  <p style=""font-size:17px;""> space such that the distance between each pair of items represents how similar you think the pair is.</p>
  <p style=""font-size:17px;""> (with closer in space meaning more similar, and farther away in space meaning more dissimilar)</p>

  <video width = ""600"" height = ""400"" autoplay muted loop style = ""margin-top: 10px;"">
    <source src = ""SpAMTutorial.mp4"" type = ""video/mp4"">
  </video>

  <p style=""font-size:17px;""> The words will appear one by one in the top left corner of a box. You can move the words by simply</p>
  <p style=""font-size:17px;""> click/dragging them. If the words seem similar, place them close together. If they seem dissimilar,</p>
  <p style=""font-size:17px;""> place them farther away from each other. You will be doing this three times on three separate domains,</p> 
  <p style=""font-size:17px;""> with a different set of words each time, based the words you typed in the corresponding verbal fluency </p>
  <p style=""font-size:17px;""> task. After dragging each word, the next word will appear. You may rearrange previously placed items.</p>
  <p style=""font-size:17px;""> Note, to complete the trial, <u>all items</u> must be moved into the ""active arena,"" the large central box. </p>
  <p style=""font-size:17px;""> When you are finished arranging the space, click on the little Continue button at the bottom of the screen.</p>
  
    <p style=""font-size:5px;""> ‎</p>

  <p style=""font-size:17px;""> Let's continue with our practice round!</p>
  <p style=""font-size:17px;""> When you're ready, <strong>press Begin.</strong></p>

  ",0,instructions,21466,,,,,,,,,,,,,,,,,,,,
,html-button-response,8,109179,0.0-8.0,10,1,2025-07-14 18:24:13,01a1fdd02c2d092b42551a60c16bc98f,139.140.216.106,"Mozilla/5.0 (Macintosh; Intel Mac OS X 10_15_7) AppleWebKit/537.36 (KHTML, like Gecko) Chrome/138.0.0.0 Safari/537.36",Macintosh,Chrome,138.0.0.0,OS X,10_15_7,null,"en-US,en;q=0.9",,19968,"
        <p style=""font-size:20px;"">Arrange each word to the drop box below based on how related they are to one another.</p> 
        <p style=""font-size:18px;"">A new word will appear after <strong>each word</strong> you move.</p>
        <p style=""font-size:17px;""> When you are finished arranging the space, click on the little Continue button at the bottom of the screen.</p>
        <div id=""word-drop-area"" style=""
          margin-top: 40px;        
          height: 400px;        
          border: 2px solid #aaa;        
          padding: 10px;       
          font-size: 20px;       
          text-align: center;       
          color: #888;   
          position: relative;   
          ""></div>
          <p style=""font-size:14px; color: gray;"">Remember, previously placed words can be rearranged if needed!</p>
          <style>       
            .draggable {         
            display: inline-block;         
            background: #eef;         
            padding: 10px;         
            border: 1px solid #aaa;         
            border-radius: 4px;         
            cursor: move;         
            font-size: 18px;         
            margin-bottom: 5px;       
          }     
        </style>    
      ",0,,21466,,,,SpAM,furniture-practice,,,"[{""word"":""chair"",""id"":""word-1"",""left"":""463px"",""top"":""260px""},{""word"":""desk"",""id"":""word-2"",""left"":""346px"",""top"":""259px""},{""word"":""bed"",""id"":""word-3"",""left"":""558px"",""top"":""184px""},{""word"":""lamp"",""id"":""word-4"",""left"":""339px"",""top"":""194px""},{""word"":""couch"",""id"":""word-5"",""left"":""548px"",""top"":""258px""}]",,,,,,,,,,,,
,html-button-response,9,119425,0.0-9.0,10,1,2025-07-14 18:24:13,01a1fdd02c2d092b42551a60c16bc98f,139.140.216.106,"Mozilla/5.0 (Macintosh; Intel Mac OS X 10_15_7) AppleWebKit/537.36 (KHTML, like Gecko) Chrome/138.0.0.0 Safari/537.36",Macintosh,Chrome,138.0.0.0,OS X,10_15_7,null,"en-US,en;q=0.9",,10244,"
  <p style=""font-size:20px;"">You have completed the practice round!</p>
  <p style=""font-size:18x;""> Now, you will begin the actual task, consisting of three rounds with different categories.</p>
  <p style=""font-size:18x;""> Again, your first task is to first type in as many items as you can think of that correspond to the given category</p>
  <p style=""font-size:18x;""> within the time limit. Then, you will arrange the items you input previously in the box provided based on how related they are.</p>

  <p style=""font-size:10px;""> ‎</p>
  <p style=""font-size:18px;""> When you're ready, <strong>press Begin</strong> to start the verbal fluency task.</p>

  ",0,instructions,21466,,,,,,,,,,,,,,,,,,,,
,html-keyboard-response,10,129427,0.0-10.0-0.0,10,1,2025-07-14 18:24:13,01a1fdd02c2d092b42551a60c16bc98f,139.140.216.106,"Mozilla/5.0 (Macintosh; Intel Mac OS X 10_15_7) AppleWebKit/537.36 (KHTML, like Gecko) Chrome/138.0.0.0 Safari/537.36",Macintosh,Chrome,138.0.0.0,OS X,10_15_7,null,"en-US,en;q=0.9",,null,"
    <div id = ""timer-box""></div>
    <div id = ""response-input-box"">
      <p style = ""font-size:30px;"">Name as many <strong>ANIMALS</strong> as you can.</p>
      <div id = ""responses"">
        <input type = ""text"" class = ""animals-response active"" autofocus />
      </div>
      <p id = ""below-input-text"" style = ""font-size: 14px; margin-top: 10px; color: gray; text-align: left;""> press <strong>enter</strong> after each word!</p>
    </div>
    <style>
      #responses {
      position: relative;
      width: 300px;
      height: 40px; 
      }

      .animals-response {
        position: absolute;
        top: 0;
        left: 0;
        width: 100%;
        font-size: 20px;
        padding: 5px;
        box-sizing: border-box;
        opacity: 0.5;
      } 

      .animals-response.active {
      opacity: 1;
      z-index: 999;
      }
    </style>
    ",null,,21466,,,,VFT,animals,"[{""response"":""dog"",""tag"":1},{""response"":""cat"",""tag"":2},{""response"":""wolf"",""tag"":3},{""response"":""hyena"",""tag"":4},{""response"":""beaver"",""tag"":5},{""response"":""aardvark"",""tag"":6}]","[2451.9,923.9,1541.8,1416.5,1457.4,2116.5]",,,,,,,,,,,,,
,html-button-response,11,133991,0.0-11.0,10,1,2025-07-14 18:24:13,01a1fdd02c2d092b42551a60c16bc98f,139.140.216.106,"Mozilla/5.0 (Macintosh; Intel Mac OS X 10_15_7) AppleWebKit/537.36 (KHTML, like Gecko) Chrome/138.0.0.0 Safari/537.36",Macintosh,Chrome,138.0.0.0,OS X,10_15_7,null,"en-US,en;q=0.9",,4561,"
  <p style=""font-size:20px;""> <strong>You are moving to the spatial arrangement task.</strong></p>
  <p style=""font-size:16px;""> As a reminder, in this task, you will be shown a set of words.</p>
  <p style=""font-size:16px;""> We need to know how similar you think these words are to one another.</p>
  <p style=""font-size:16px;""> To indicate your perception of similarity, you will move each word</p> 
  <p style=""font-size:16px;""> around so that the similar ones are proportionately closer together.</p>
  <p style=""font-size:16px;""> If the words seem similar, place them close together, if they seem</p>
  <p style=""font-size:16px;""> dissimilar, place them farther away from each other.</p>
  <p style=""font-size:10px;""> ‎</p>
  <p style=""font-size:18px;""> Press <strong>Begin</strong> to start.</p>

  ",0,instructions,21466,,,,,,,,,,,,,,,,,,,,
,html-button-response,12,154208,0.0-12.0,10,1,2025-07-14 18:24:13,01a1fdd02c2d092b42551a60c16bc98f,139.140.216.106,"Mozilla/5.0 (Macintosh; Intel Mac OS X 10_15_7) AppleWebKit/537.36 (KHTML, like Gecko) Chrome/138.0.0.0 Safari/537.36",Macintosh,Chrome,138.0.0.0,OS X,10_15_7,null,"en-US,en;q=0.9",,20215,"
        <p style=""font-size:20px;"">Arrange each word to the drop box below based on how related they are to one another.</p> 
        <p style=""font-size:18px;"">A new word will appear after <strong>each word</strong> you move.</p>
        <p style=""font-size:17px;""> When you are finished arranging the space, click on the little Continue button at the bottom of the screen.</p>
        <div id=""word-drop-area"" style=""
          margin-top: 40px;        
          height: 400px;        
          border: 2px solid #aaa;        
          padding: 10px;       
          font-size: 20px;       
          text-align: center;       
          color: #888;   
          position: relative;   
          ""></div>
          <p style=""font-size:14px; color: gray;"">Remember, previously placed words can be rearranged if needed!</p>
          <style>       
            .draggable {         
            display: inline-block;         
            background: #eef;         
            padding: 10px;         
            border: 1px solid #aaa;         
            border-radius: 4px;         
            cursor: move;         
            font-size: 18px;         
            margin-bottom: 5px;       
          }     
        </style>    
      ",0,,21466,,,,SpAM,animals,,,"[{""word"":""dog"",""id"":""word-1"",""left"":""334px"",""top"":""169px""},{""word"":""cat"",""id"":""word-2"",""left"":""418px"",""top"":""171px""},{""word"":""wolf"",""id"":""word-3"",""left"":""272px"",""top"":""168px""},{""word"":""hyena"",""id"":""word-4"",""left"":""260px"",""top"":""114px""},{""word"":""beaver"",""id"":""word-5"",""left"":""574px"",""top"":""74px""},{""word"":""aardvark"",""id"":""word-6"",""left"":""670px"",""top"":""149px""}]",,,,,,,,,,,,
,html-button-response,13,156958,0.0-13.0,10,1,2025-07-14 18:24:13,01a1fdd02c2d092b42551a60c16bc98f,139.140.216.106,"Mozilla/5.0 (Macintosh; Intel Mac OS X 10_15_7) AppleWebKit/537.36 (KHTML, like Gecko) Chrome/138.0.0.0 Safari/537.36",Macintosh,Chrome,138.0.0.0,OS X,10_15_7,null,"en-US,en;q=0.9",,2748,"
  <p style=""font-size:18px;""> <strong>You will now move to the next category.</strong></p>
  <p style=""font-size:16px;""> As a reminder, in this task, you will type as many words as you can </p> 
  <p style=""font-size:16px;""> think of that correspond to the category presented in capital letters.</p>
  <p style=""font-size:18px;""> Press <strong>Begin</strong> to start.</p>

  ",0,instructions,21466,,,,,,,,,,,,,,,,,,,,
,html-keyboard-response,14,166959,0.0-14.0-0.0,10,1,2025-07-14 18:24:13,01a1fdd02c2d092b42551a60c16bc98f,139.140.216.106,"Mozilla/5.0 (Macintosh; Intel Mac OS X 10_15_7) AppleWebKit/537.36 (KHTML, like Gecko) Chrome/138.0.0.0 Safari/537.36",Macintosh,Chrome,138.0.0.0,OS X,10_15_7,null,"en-US,en;q=0.9",,null,"
    <div id = ""timer-box""></div>
    <div id = ""response-input-box"">
      <p style = ""font-size:30px;"">Name as many items of <strong>CLOTHING</strong> as you can.</p>
      <div id = ""responses"">
        <input type = ""text"" class = ""clothes-response active"" autofocus />
      </div>
      <p id = ""below-input-text"" style = ""font-size: 14px; margin-top: 10px; color: gray; text-align: left;""> press <strong>enter</strong> after each word!</p>
    </div>
    <style>
      #responses {
      position: relative;
      width: 300px;
      height: 40px; 
      }

      .clothes-response {
        position: absolute;
        top: 0;
        left: 0;
        width: 100%;
        font-size: 20px;
        padding: 5px;
        box-sizing: border-box;
        opacity: 0.5;
      } 

      .clothes-response.active {
      opacity: 1;
      z-index: 999;
      }
    </style>
    ",null,,21466,,,,VFT,clothes,"[{""response"":""shirt"",""tag"":1},{""response"":""pants"",""tag"":2},{""response"":""blouse"",""tag"":3},{""response"":""jacket"",""tag"":4},{""response"":""puffer"",""tag"":5}]","[2029.7,2072.2,2201.8,1410.4,1805.4]",,,,,,,,,,,,,
,html-button-response,15,169941,0.0-15.0,10,1,2025-07-14 18:24:13,01a1fdd02c2d092b42551a60c16bc98f,139.140.216.106,"Mozilla/5.0 (Macintosh; Intel Mac OS X 10_15_7) AppleWebKit/537.36 (KHTML, like Gecko) Chrome/138.0.0.0 Safari/537.36",Macintosh,Chrome,138.0.0.0,OS X,10_15_7,null,"en-US,en;q=0.9",,2980,"
  <p style=""font-size:20px;""> <strong>You are moving to the spatial arrangement task.</strong></p>
  <p style=""font-size:16px;""> As a reminder, in this task, you will be shown a set of words.</p>
  <p style=""font-size:16px;""> We need to know how similar you think these words are to one another.</p>
  <p style=""font-size:16px;""> To indicate your perception of similarity, you will move each word</p> 
  <p style=""font-size:16px;""> around so that the similar ones are proportionately closer together.</p>
  <p style=""font-size:16px;""> If the words seem similar, place them close together, if they seem</p>
  <p style=""font-size:16px;""> dissimilar, place them farther away from each other.</p>
  <p style=""font-size:10px;""> ‎</p>
  <p style=""font-size:18px;""> Press <strong>Begin</strong> to start.</p>

  ",0,instructions,21466,,,,,,,,,,,,,,,,,,,,
,html-button-response,16,193328,0.0-16.0,10,1,2025-07-14 18:24:13,01a1fdd02c2d092b42551a60c16bc98f,139.140.216.106,"Mozilla/5.0 (Macintosh; Intel Mac OS X 10_15_7) AppleWebKit/537.36 (KHTML, like Gecko) Chrome/138.0.0.0 Safari/537.36",Macintosh,Chrome,138.0.0.0,OS X,10_15_7,null,"en-US,en;q=0.9",,23386,"
        <p style=""font-size:20px;"">Arrange each word to the drop box below based on how related they are to one another.</p> 
        <p style=""font-size:18px;"">A new word will appear after <strong>each word</strong> you move.</p>
        <p style=""font-size:17px;""> When you are finished arranging the space, click on the little Continue button at the bottom of the screen.</p>
        <div id=""word-drop-area"" style=""
          margin-top: 40px;        
          height: 400px;        
          border: 2px solid #aaa;        
          padding: 10px;       
          font-size: 20px;       
          text-align: center;       
          color: #888;   
          position: relative;   
          ""></div>
          <p style=""font-size:14px; color: gray;"">Remember, previously placed words can be rearranged if needed!</p>
          <style>       
            .draggable {         
            display: inline-block;         
            background: #eef;         
            padding: 10px;         
            border: 1px solid #aaa;         
            border-radius: 4px;         
            cursor: move;         
            font-size: 18px;         
            margin-bottom: 5px;       
          }     
        </style>    
      ",0,,21466,,,,SpAM,clothes,,,"[{""word"":""shirt"",""id"":""word-1"",""left"":""262px"",""top"":""194px""},{""word"":""pants"",""id"":""word-2"",""left"":""261px"",""top"":""278px""},{""word"":""blouse"",""id"":""word-3"",""left"":""177px"",""top"":""191px""},{""word"":""jacket"",""id"":""word-4"",""left"":""327px"",""top"":""194px""},{""word"":""puffer"",""id"":""word-5"",""left"":""325px"",""top"":""140px""}]",,,,,,,,,,,,
,html-keyboard-response,17,203331,0.0-17.0-0.0,10,1,2025-07-14 18:24:13,01a1fdd02c2d092b42551a60c16bc98f,139.140.216.106,"Mozilla/5.0 (Macintosh; Intel Mac OS X 10_15_7) AppleWebKit/537.36 (KHTML, like Gecko) Chrome/138.0.0.0 Safari/537.36",Macintosh,Chrome,138.0.0.0,OS X,10_15_7,null,"en-US,en;q=0.9",,null,"
    <div id = ""timer-box""></div>
    <div id = ""response-input-box"">
      <p style = ""font-size:30px;"">Name as many <strong>TOOLS</strong> as you can.</p>
      <div id = ""responses"">
        <input type = ""text"" class = ""tools-response active"" autofocus />
      </div>
      <p id = ""below-input-text"" style = ""font-size: 14px; margin-top: 10px; color: gray; text-align: left;""> press <strong>enter</strong> after each word!</p>
    </div>
    <style>
      #responses {
      position: relative;
      width: 300px;
      height: 40px; 
      }

      .tools-response {
        position: absolute;
        top: 0;
        left: 0;
        width: 100%;
        font-size: 20px;
        padding: 5px;
        box-sizing: border-box;
        opacity: 0.5;
      } 

      .tools-response.active {
      opacity: 1;
      z-index: 999;
      }
    </style>
    ",null,,21466,,,,VFT,tools,"[{""response"":""hammer"",""tag"":1},{""response"":""screwdrive"",""tag"":2}]","[6465.1,2159.9]",,,,,,,,,,,,,
,html-button-response,18,205816,0.0-18.0,10,1,2025-07-14 18:24:13,01a1fdd02c2d092b42551a60c16bc98f,139.140.216.106,"Mozilla/5.0 (Macintosh; Intel Mac OS X 10_15_7) AppleWebKit/537.36 (KHTML, like Gecko) Chrome/138.0.0.0 Safari/537.36",Macintosh,Chrome,138.0.0.0,OS X,10_15_7,null,"en-US,en;q=0.9",,2483,"
  <p style=""font-size:20px;""> <strong>You are moving to the spatial arrangement task.</strong></p>
  <p style=""font-size:16px;""> As a reminder, in this task, you will be shown a set of words.</p>
  <p style=""font-size:16px;""> We need to know how similar you think these words are to one another.</p>
  <p style=""font-size:16px;""> To indicate your perception of similarity, you will move each word</p> 
  <p style=""font-size:16px;""> around so that the similar ones are proportionately closer together.</p>
  <p style=""font-size:16px;""> If the words seem similar, place them close together, if they seem</p>
  <p style=""font-size:16px;""> dissimilar, place them farther away from each other.</p>
  <p style=""font-size:10px;""> ‎</p>
  <p style=""font-size:18px;""> Press <strong>Begin</strong> to start.</p>

  ",0,instructions,21466,,,,,,,,,,,,,,,,,,,,
,html-button-response,19,211887,0.0-19.0,10,1,2025-07-14 18:24:13,01a1fdd02c2d092b42551a60c16bc98f,139.140.216.106,"Mozilla/5.0 (Macintosh; Intel Mac OS X 10_15_7) AppleWebKit/537.36 (KHTML, like Gecko) Chrome/138.0.0.0 Safari/537.36",Macintosh,Chrome,138.0.0.0,OS X,10_15_7,null,"en-US,en;q=0.9",,6069,"
        <p style=""font-size:20px;"">Arrange each word to the drop box below based on how related they are to one another.</p> 
        <p style=""font-size:18px;"">A new word will appear after <strong>each word</strong> you move.</p>
        <p style=""font-size:17px;""> When you are finished arranging the space, click on the little Continue button at the bottom of the screen.</p>
        <div id=""word-drop-area"" style=""
          margin-top: 40px;        
          height: 400px;        
          border: 2px solid #aaa;        
          padding: 10px;       
          font-size: 20px;       
          text-align: center;       
          color: #888;   
          position: relative;   
          ""></div>
          <p style=""font-size:14px; color: gray;"">Remember, previously placed words can be rearranged if needed!</p>
          <style>       
            .draggable {         
            display: inline-block;         
            background: #eef;         
            padding: 10px;         
            border: 1px solid #aaa;         
            border-radius: 4px;         
            cursor: move;         
            font-size: 18px;         
            margin-bottom: 5px;       
          }     
        </style>    
      ",0,,21466,,,,SpAM,tools,,,"[{""word"":""hammer"",""id"":""word-1"",""left"":""362px"",""top"":""169px""},{""word"":""screwdrive"",""id"":""word-2"",""left"":""237px"",""top"":""166px""}]",,,,,,,,,,,,
,html-button-response,20,213439,0.0-20.0,10,1,2025-07-14 18:24:13,01a1fdd02c2d092b42551a60c16bc98f,139.140.216.106,"Mozilla/5.0 (Macintosh; Intel Mac OS X 10_15_7) AppleWebKit/537.36 (KHTML, like Gecko) Chrome/138.0.0.0 Safari/537.36",Macintosh,Chrome,138.0.0.0,OS X,10_15_7,null,"en-US,en;q=0.9",,1552,"
  <p style=""font-size:18px;""> <strong>You will now move to the next category.</strong></p>
  <p style=""font-size:16px;""> As a reminder, in this task, you will type as many words as you can </p> 
  <p style=""font-size:16px;""> think of that correspond to the category presented in capital letters.</p>
  <p style=""font-size:18px;""> Press <strong>Begin</strong> to start.</p>

  ",0,instructions,21466,,,,,,,,,,,,,,,,,,,,
,html-keyboard-response,21,223441,0.0-21.0-0.0,10,1,2025-07-14 18:24:13,01a1fdd02c2d092b42551a60c16bc98f,139.140.216.106,"Mozilla/5.0 (Macintosh; Intel Mac OS X 10_15_7) AppleWebKit/537.36 (KHTML, like Gecko) Chrome/138.0.0.0 Safari/537.36",Macintosh,Chrome,138.0.0.0,OS X,10_15_7,null,"en-US,en;q=0.9",,null,"
    <div id = ""timer-box""></div>
    <div id = ""response-input-box"">
      <p style = ""font-size:30px;"">Name as many <strong>SPORTS</strong> as you can.</p>
      <div id = ""responses"">
        <input type = ""text"" class = ""sports-response active"" autofocus />
      </div>
      <p id = ""below-input-text"" style = ""font-size: 14px; margin-top: 10px; color: gray; text-align: left;""> press <strong>enter</strong> after each word!</p>
    </div>
    <style>
      #responses {
      position: relative;
      width: 300px;
      height: 40px; 
      }

      .sports-response {
        position: absolute;
        top: 0;
        left: 0;
        width: 100%;
        font-size: 20px;
        padding: 5px;
        box-sizing: border-box;
        opacity: 0.5;
      } 

      .sports-response.active {
      opacity: 1;
      z-index: 999;
      }
    </style>
